Thumb,IndexFinger,MiddleFinger,RingFinger,LittleFinger,accelerometer_x,accelerometer_y,accelerometer_z,temperature,gyro_x,gyro_y,gyro_z,Gesture
442,369,455,406,353,21728,1664,2208,28.01,31484,4971,10839,0
485,461,491,438,407,15512,-1572,9576,28.11,-17512,7375,-32768,0
446,450,492,409,399,13984,15168,10272,28.11,-12953,14221,3557,0
385,445,489,413,413,9200,8696,1392,28.06,-6873,5257,-7237,0
429,374,451,383,441,32360,3016,2720,28.06,-16065,-3250,-1636,0
342,266,340,232,244,13836,1720,11032,28.11,-1882,859,2973,0
358,286,354,245,263,14540,324,10336,28.2,-1114,-765,17,0
359,291,357,250,265,14840,492,9920,28.01,-440,-30,136,0
360,294,360,252,267,14380,-112,10380,28.15,-780,-380,36,0
361,297,362,255,269,14416,-444,10240,28.15,-1353,-951,-106,0
362,292,364,256,272,15000,68,9296,28.01,-784,254,-285,0
363,293,365,257,273,15024,-636,9352,28.11,-802,-284,105,0
364,301,367,259,274,14936,-1040,9236,28.11,-989,-325,212,0
364,300,368,260,275,14972,-572,9428,28.15,-573,-89,-84,0
366,296,368,260,276,14892,-1028,9252,28.15,-786,-313,-17,0
366,297,369,261,277,14964,-952,9252,28.2,-664,-292,-33,0
366,299,369,261,277,14876,-824,9452,28.25,-691,-254,37,0
367,303,370,262,278,14792,-656,9512,28.11,-615,-209,53,0
367,307,371,262,279,14952,-568,9428,28.11,-925,-205,-218,0
367,304,371,263,280,15020,-828,9444,28.11,-824,-593,-288,0
368,310,371,263,281,15096,-264,9192,28.11,-723,-585,239,0
370,308,385,267,378,16480,1504,7136,28.2,-1070,-109,-206,0
373,314,384,303,333,15956,1268,6980,28.2,-2467,-338,-103,0
372,312,383,298,320,15768,900,7380,28.2,-1027,-93,-228,0
375,307,384,298,319,14640,548,10236,28.25,156,-35,178,0
374,311,383,294,307,15296,-236,9088,28.15,-552,192,284,0
375,310,383,295,307,15180,-28,9024,28.25,-734,-184,-76,0
375,305,383,296,308,15288,-156,8836,28.11,-582,-236,57,0
375,303,384,295,308,15232,-572,8724,28.25,-916,-164,-115,0
376,312,384,295,308,15320,-412,8664,28.15,-713,-394,-75,0
375,311,384,296,308,15252,-272,8892,28.15,-737,-284,10,0
376,312,384,296,309,15252,-328,8764,28.25,-653,-151,8,0
376,312,385,297,309,15340,-308,8652,28.2,-646,-111,39,0
376,312,385,296,309,15480,-356,8740,28.2,-697,-239,-14,0
377,308,385,297,309,15408,-244,8752,28.29,-637,-113,-36,0
376,299,385,297,309,15300,-224,8660,28.25,-709,-166,-1,0
377,297,385,297,310,15388,-384,8624,28.29,-685,-242,-9,0
377,307,386,297,310,15296,-356,8760,28.29,-679,-184,6,0
377,296,386,298,310,15368,-384,8716,28.25,-582,-209,-84,0
377,300,386,298,310,15408,-412,8736,28.29,-587,-260,-28,0
377,305,386,298,310,15408,-432,8636,28.25,-676,-215,-37,0
377,304,386,298,310,15384,-400,8628,28.25,-668,-161,-60,0
377,302,386,298,310,15416,-464,8828,28.25,-634,-190,19,0
377,310,386,299,311,15408,-480,8636,28.25,-768,-200,-70,0
377,307,386,299,311,15368,-376,8668,28.2,-650,-251,31,0
377,307,387,299,311,15408,-340,8680,28.29,-679,-258,-14,0
377,302,387,299,311,15440,728,8588,28.34,-631,-262,-495,0
377,303,387,299,311,15336,-632,8664,28.29,-682,-165,-27,0
378,304,387,299,312,15344,-588,8560,28.34,-645,-258,134,0
378,311,388,300,311,15480,-764,8500,28.25,-501,39,-30,0
378,314,388,300,312,15536,-644,8344,28.29,-685,-298,-8,0
378,313,388,300,312,15600,-696,8548,28.29,-737,-326,-25,0
378,295,388,300,312,15440,-656,8588,28.39,-701,-128,-8,0
378,302,388,300,312,15368,-600,8596,28.34,-711,-204,21,0
378,295,388,301,312,15372,-684,8288,28.34,-713,-254,-2,0
378,315,388,301,312,15460,-696,8228,28.39,-752,-176,-1,0
378,312,388,301,312,15376,-572,8524,28.44,-659,-159,-10,0
379,317,388,301,312,15432,-644,8492,28.39,-681,-208,-28,0
379,319,388,301,312,15468,-704,8560,28.29,-718,-247,-25,0
379,319,388,301,313,15492,-440,8472,28.34,-813,-313,9,0
379,312,389,301,313,15472,-772,8232,28.34,-707,-411,-295,0
379,308,389,301,313,15448,-588,8484,28.39,-719,-282,-18,0
379,311,389,301,313,15432,-644,8704,28.48,-699,-186,-41,0
379,312,389,301,313,15444,-560,8568,28.44,-694,-276,-14,0
379,310,389,302,313,15412,-728,8536,28.34,-566,-196,-40,0
379,310,389,302,313,15452,-632,8480,28.29,-738,-227,-25,0
379,309,389,302,313,15560,-580,8492,28.39,-640,-219,-19,0
379,309,389,302,313,15564,-800,8496,28.39,-663,-215,49,0
379,309,389,302,313,15380,-732,8536,28.34,-601,-241,-55,0
379,312,389,302,313,15424,-680,8468,28.39,-767,-184,13,0
379,309,389,302,313,15692,-432,8212,28.44,-718,-218,-43,0
379,312,389,302,313,15648,-732,8236,28.39,-665,-218,-51,0
379,313,389,303,313,15540,-752,8408,28.39,-592,-119,27,0
379,312,390,303,313,15460,-728,8468,28.48,-753,-239,-35,0
379,312,389,303,313,15540,-644,8544,28.48,-676,-236,16,0
379,322,390,303,314,15448,-816,8536,28.48,-744,-335,173,0
380,321,390,303,314,15520,-504,8408,28.44,-617,-83,-161,0
380,313,390,303,313,15392,-872,8560,28.48,-828,-1014,204,0
379,319,390,303,314,15152,-624,8884,28.48,-605,-94,160,0
379,317,390,303,314,15088,-1400,8732,28.44,-575,-323,-155,0
379,316,390,303,314,15504,20,8500,28.53,-689,-133,-522,0
345,278,352,260,318,13728,9724,2780,26.69,795,687,-231,0
354,280,352,260,320,14084,10192,3028,26.79,-2158,-547,712,0
355,281,353,261,322,13296,10344,3560,26.65,-1463,-716,135,0
355,281,354,261,322,13976,9576,3036,26.79,274,35,827,0
354,269,354,261,320,14020,9628,2956,26.69,-692,-165,-248,0
355,280,355,261,321,13856,9824,3236,26.69,-527,-376,201,0
356,281,355,262,322,13856,9688,3328,26.74,-584,-207,101,0
356,282,356,262,322,13708,9900,3232,26.79,-563,-133,55,0
356,287,356,263,322,13732,9840,3588,26.74,-1347,-334,-420,0
357,288,357,262,323,13280,9788,2552,26.74,-241,8,224,0
357,288,358,262,323,13332,10124,3228,26.88,-212,-551,166,0
357,288,358,263,324,13268,10616,2792,26.79,-782,-550,-40,0
357,289,358,263,324,12780,10764,3376,26.84,-762,-312,-339,0
357,289,359,263,324,13044,10444,3156,26.84,-604,-350,155,0
357,290,359,264,325,12912,10968,3364,26.84,-834,-239,-361,0
357,291,359,264,325,13196,10644,2848,26.84,-638,-194,47,0
357,293,359,264,325,13496,10768,2244,26.79,-876,107,-125,0
357,294,360,264,326,13072,10552,2628,26.88,-652,-264,-10,0
357,294,360,264,326,12660,10896,3168,26.79,-621,1,-120,0
358,295,360,264,326,12684,11076,3020,26.79,-628,-205,89,0
357,295,361,264,326,13012,10856,2836,26.84,-717,-195,-48,0
357,295,361,264,326,12676,10936,3072,26.88,-600,-442,46,0
358,295,361,265,327,12752,10960,2932,26.84,-855,-291,-90,0
356,296,362,265,327,12728,10892,3036,26.84,-519,-230,-66,0
359,297,362,265,327,13028,10884,2832,26.88,-1152,-811,272,0
345,296,362,265,327,12656,12036,1964,26.84,689,-1360,2050,0
350,295,362,264,329,13764,10212,852,26.88,-902,-668,292,0
343,296,362,264,325,13252,10340,528,26.98,-1991,-923,-1117,0
360,297,362,264,330,12584,12144,988,26.88,568,1025,485,0
360,298,363,263,329,12396,11360,-804,26.88,-559,-348,-486,0
360,297,363,263,330,13432,10700,-744,26.69,380,1233,1364,0
359,296,363,263,332,12944,9984,-2196,26.84,150,-299,687,0
360,298,363,263,332,13380,10212,-1780,26.93,-797,-364,38,0
360,298,364,263,332,13292,10320,-1820,26.88,-591,52,-390,0
360,299,364,264,333,13400,10612,-1612,26.88,-736,-199,29,0
360,299,364,264,333,13156,10504,-1564,26.98,-597,-103,-24,0
360,299,364,264,333,13300,10276,-1424,26.98,-731,-659,-874,0
360,299,363,264,333,13260,10420,-1400,26.88,-645,-213,90,0
360,300,364,264,333,13344,10440,-1348,26.88,-678,193,159,0
360,300,364,264,333,13224,10832,-1544,26.93,-644,-163,198,0
360,300,364,264,333,13128,10520,-1632,26.88,-830,-90,3,0
360,301,365,264,333,12960,10572,-1152,26.88,-701,-314,-49,0
360,301,364,264,333,13516,10896,-1444,26.93,-747,-582,-523,0
360,301,364,264,333,13108,10128,-1152,26.84,-872,-442,58,0
360,301,348,265,333,13148,10532,-1328,26.93,-659,-200,231,0
360,301,362,264,335,13264,10444,-1500,26.98,-612,-244,155,0
360,301,360,265,334,13212,10488,-1528,26.88,-637,-111,-180,0
360,301,357,265,334,13256,10188,-1524,26.84,-591,-209,191,0
360,302,349,265,334,13368,10228,-1664,26.88,-606,-267,59,0
359,302,347,265,334,13120,10384,-1460,26.88,-278,443,-404,0
359,302,360,266,334,13336,10668,-1316,26.88,-659,-251,28,0
359,302,363,265,335,13156,10380,-1460,26.98,-712,-169,-60,0
359,302,364,266,335,13152,10552,-1140,26.93,-805,-349,289,0
359,303,364,266,335,13292,10148,-1496,26.93,-638,-43,-487,0
358,303,364,266,335,13376,10436,-1512,26.93,-838,-450,11,0
357,303,364,266,335,13256,10380,-1428,26.93,-691,-206,110,0
355,300,365,267,331,14636,10156,452,26.93,1776,10976,4456,0
359,298,362,265,330,12684,9932,2120,26.88,333,-2752,-217,0
359,301,365,271,329,12564,11480,1004,26.98,96,-1090,1118,0
359,304,365,271,329,12272,11196,1792,26.98,-633,-498,-48,0
359,304,366,271,330,12200,11588,2144,26.93,-641,-188,-27,0
357,302,365,268,328,13596,10008,280,26.88,3372,-372,2393,0
354,300,365,269,328,14928,8632,512,26.84,-1297,-582,-754,0
355,300,365,269,329,14604,8092,1084,26.88,-1356,934,-969,0
355,300,365,269,329,14468,8972,1516,26.88,-894,-501,102,0
355,300,365,269,328,14588,9404,1584,26.79,-540,-129,43,0
355,301,365,270,329,14684,8768,1480,26.98,-600,-242,117,0
355,301,365,269,329,14912,8592,1440,26.98,-769,-279,117,0
355,301,366,270,328,14436,8776,1556,26.88,-653,117,-397,0
355,301,366,270,328,14936,8604,1168,26.93,-483,-214,-57,0
356,301,366,270,328,14648,8208,1592,26.93,-412,92,431,0
356,302,366,270,328,14904,8556,1336,26.88,-560,-225,98,0
356,303,366,270,328,14576,8468,1036,26.84,-1228,107,-1305,0
356,303,366,270,328,14552,7896,88,26.93,-570,-452,32,0
356,304,364,270,329,15008,8844,464,26.88,-276,-321,-22,0
335,303,363,270,330,14628,9360,-972,26.88,402,-301,-770,0
331,298,355,271,329,14188,9504,-1532,26.88,-911,747,-1075,0
349,303,336,271,330,13688,9584,-460,26.93,-818,-276,-97,0
349,303,341,271,330,13604,10156,-392,26.98,-629,-68,107,0
350,304,364,271,330,13672,9560,-564,26.79,-756,-463,154,0
350,303,362,271,330,13784,9076,-1012,26.88,-1414,-386,-108,0
351,303,366,271,330,13876,9776,-808,26.98,-557,215,-411,0
351,303,344,271,331,14600,9572,-1012,26.93,-1307,-940,541,0
350,304,357,271,330,12872,10260,1340,26.93,244,352,-989,0
349,304,365,272,330,13344,9968,1252,26.88,-622,-36,-455,0
349,304,356,272,331,13760,10108,1232,26.88,-68,215,859,0
349,304,365,271,331,14744,8572,448,26.88,-791,-405,554,0
350,305,366,271,331,14896,9076,-360,26.79,-1042,-1022,1996,0
350,305,367,272,331,14984,7772,272,26.88,-964,-142,-539,0
349,305,367,271,331,15232,8268,-544,26.88,-488,150,11,0
348,305,367,272,331,14576,8700,4,26.79,-247,457,-11,0
347,305,367,272,331,14500,8676,76,26.84,-712,-175,44,0
360,306,367,272,331,14976,8796,-52,26.74,-819,-165,-439,0
360,306,367,272,331,14524,8608,36,26.79,-784,-131,-250,0
360,306,367,272,331,14336,8828,532,26.79,-716,-24,-23,0
360,306,367,272,331,14352,9036,392,26.88,-717,-434,621,0
360,306,367,273,331,14492,9056,116,26.84,-720,-343,489,0
359,305,367,273,331,14876,8708,36,26.74,-590,-155,63,0
360,305,367,273,331,14504,8916,428,26.65,-777,-73,-152,0
360,305,367,273,330,14620,8396,324,26.84,-918,-21,-433,0
447,411,474,403,442,-12332,2312,10036,27.73,-669,-192,-29,0
446,412,474,402,442,-11416,1784,9988,27.73,-772,-298,-84,0
446,427,475,411,442,-12228,1480,10196,27.78,-698,-428,47,0
370,296,397,321,382,-4612,9304,13996,27.78,-1942,-3472,2566,0
338,323,391,317,385,-2656,6536,15524,27.64,-720,-395,-65,0
360,331,396,321,386,-3064,6328,15452,27.73,-912,-106,734,0
380,292,389,308,329,-2248,11584,11832,27.78,4608,512,2636,0
413,322,410,356,335,-496,17672,7116,27.68,-5817,-1494,-3952,0
411,319,404,349,339,196,12180,12320,27.64,-3451,-2033,2143,0
310,244,318,226,216,4540,12320,9116,27.78,-3434,-1327,-1644,0
341,299,301,207,219,7388,12660,8748,27.78,-448,-90,543,0
339,297,306,214,224,9972,11636,6676,27.78,-774,-1072,-473,0
350,302,314,223,232,7700,11648,8052,27.73,2528,-784,316,0
352,291,340,249,253,6648,13016,8748,27.73,-1258,-675,-155,0
362,297,355,272,314,11072,5972,14072,27.73,-2305,-3057,-1303,0
343,303,350,267,270,11808,888,12164,27.73,9229,496,4123,0
331,301,337,232,264,10884,8224,11044,27.73,-1214,1169,466,0
335,305,339,236,263,10672,6820,11948,27.82,-3721,-438,-125,0
325,300,338,233,262,11264,9540,8824,27.87,-1312,1169,-259,0
342,311,343,246,269,7848,2744,15524,27.73,-1020,-517,-317,0
351,314,354,256,280,8464,2544,15168,27.78,-107,-19,416,0
342,310,354,258,276,8564,2404,15384,27.82,-1132,-331,-309,0
329,310,352,260,276,8992,2344,15108,27.78,-654,-303,22,0
328,313,357,265,283,9212,1812,14976,27.87,-651,-260,241,0
330,312,356,266,284,8960,1948,15128,27.82,-867,-143,-27,0
332,312,356,266,284,9164,1820,14860,27.87,-614,-281,-50,0
332,312,356,267,285,8988,1996,15092,27.92,-417,-81,-81,0
332,313,357,267,284,9008,1808,15064,27.92,-556,84,-146,0
335,316,358,268,285,8648,2868,15172,27.97,-981,-266,-48,0
336,316,358,268,286,8792,2240,15116,27.97,-669,-275,-59,0
336,316,358,269,286,8684,2356,15192,27.92,-732,9,-120,0
337,317,358,270,287,9100,2364,14968,27.92,-522,-243,-62,0
341,319,361,272,290,8776,2572,15628,27.97,-1001,-784,-454,0
341,320,361,273,291,8984,2492,15060,28.01,-619,453,62,0
340,320,361,273,292,9304,2636,15076,27.97,-339,-277,-170,0
340,320,361,273,292,9636,2828,14688,28.06,-694,-190,-84,0
341,320,361,273,292,9676,2900,14636,28.01,-635,-25,-143,0
341,320,362,274,292,9220,2828,14912,28.11,-764,-255,-56,0
341,321,362,274,293,9652,3000,14524,28.01,-559,84,121,0
341,321,362,274,293,8852,2972,15196,28.11,-390,-442,118,0
341,321,362,274,293,8288,3492,15584,27.97,-269,-866,-60,0
341,321,362,274,293,9088,3132,14080,28.06,-1633,2312,-682,0
341,321,363,273,293,6792,1996,15956,28.15,-1119,1775,-29,0
341,321,363,273,293,5560,2020,16620,28.11,-625,-654,131,0
341,322,363,274,294,6344,2692,15836,28.15,-688,-68,-792,0
341,322,364,274,294,6380,2964,16116,28.15,-868,-343,31,0
341,322,364,274,294,5972,2524,16520,28.2,-223,-360,-281,0
341,323,364,275,294,6236,2260,16480,28.2,-683,-170,35,0
342,323,364,275,295,5936,2408,16784,28.2,-532,-423,32,0
342,323,364,275,295,6548,2744,15964,28.2,-805,-235,168,0
342,324,365,275,296,6208,2408,16576,28.25,-767,-22,-342,0
342,323,364,275,296,5972,2460,16360,28.29,-380,-625,-289,0
342,323,365,275,296,5188,1948,16812,28.34,-1131,99,-106,0
343,324,365,275,296,5660,2328,16460,28.39,-798,541,271,0
343,324,365,275,297,6348,2580,16028,28.29,-945,-125,-160,0
343,324,365,276,297,6884,2888,15168,28.34,-692,405,217,0
343,325,364,276,297,6204,1856,15712,28.34,-708,1270,-588,0
343,325,364,276,297,4912,2512,16956,28.39,-987,-383,-1177,0
344,326,364,276,298,5212,2524,16580,28.44,-355,-105,369,0
344,326,366,277,299,5232,2832,16800,28.48,-614,-530,-79,0
344,326,366,276,299,5276,2252,16504,28.48,-464,-443,314,0
345,326,366,277,299,5672,2920,16448,28.53,-838,231,-32,0
345,326,366,277,300,6008,2924,16192,28.48,-671,-222,15,0
346,326,366,277,300,5684,2664,16216,28.53,-659,-172,-90,0
346,327,366,277,300,5864,2508,16248,28.58,-584,-240,-24,0
346,327,366,277,299,5368,2808,16452,28.58,-553,-215,19,0
346,326,368,276,303,5980,2268,16256,28.48,-1208,-471,-483,0
347,327,368,277,302,5868,2360,16340,28.58,-608,-297,-84,0
347,327,367,277,302,5704,2436,16360,28.53,-675,-205,12,0
347,326,368,277,302,5940,2232,16280,28.53,-562,-186,75,0
347,326,368,278,303,5792,2176,16368,28.58,-612,-404,10,0
347,327,368,278,304,5844,2412,16296,28.53,-660,-214,-21,0
346,328,368,278,304,5996,2788,16612,28.67,-633,-225,-44,0
347,328,368,278,304,5776,2572,16332,28.53,-417,-122,127,0
347,328,368,278,304,5656,2280,16384,28.48,-645,-176,45,0
347,328,368,278,304,5868,2324,16568,28.58,-883,-200,21,0
347,328,369,278,304,5692,2348,16648,28.53,-692,41,-88,0
347,328,369,278,304,6036,2520,16392,28.62,-802,-278,23,0
348,328,369,278,304,5724,2316,16584,28.62,-920,-21,101,0
347,329,369,278,304,5772,2868,16472,28.58,-449,305,36,0
347,329,369,279,307,5484,2596,16580,28.62,-659,-284,52,0
347,329,369,280,308,5924,2648,16316,28.58,-580,-237,-12,0
348,329,370,280,308,5828,2952,16308,28.58,-568,-164,90,0
349,329,370,280,309,5948,2924,16516,28.62,-530,-88,58,0
348,329,370,280,309,5828,2608,16396,28.67,-758,-315,-62,0
349,330,370,280,309,5696,2424,16292,28.58,-572,-258,17,0
349,329,370,280,309,5648,2564,16480,28.67,-547,-289,-205,0
349,329,370,281,309,6048,2424,16020,28.72,-776,-72,-183,0
349,330,370,281,309,5720,2940,16532,28.72,-698,-230,184,0
349,330,370,281,309,5980,2592,16376,28.67,-774,-213,-47,0
349,330,370,281,309,6000,2516,16228,28.67,-722,-251,-82,0
349,329,370,281,309,5876,2692,16372,28.77,-901,-185,-66,0
349,329,370,281,309,6112,2168,16272,28.67,-622,-188,-17,0
349,330,370,281,309,5976,2592,16596,28.67,-751,-133,-13,0
349,330,371,281,309,6080,2328,16476,28.72,-459,-231,31,0
349,330,370,281,309,5844,2436,16452,28.67,-674,-283,32,0
349,330,371,281,309,5992,2428,16244,28.72,-701,-199,-44,0
350,330,371,281,309,6080,2584,16316,28.77,-644,-209,53,0
350,330,371,281,309,5908,2412,16340,28.77,-616,-80,161,0
350,330,371,281,309,5948,2496,16436,28.81,-710,-290,-33,0
406,435,444,343,352,-4604,8860,13820,25.24,-4116,-1537,793,0
406,428,440,330,354,4976,8832,14132,25.28,5654,-4234,5158,0
326,274,429,369,404,13440,6920,7136,25.28,-1397,421,-84,0
375,300,360,228,274,14764,7636,5996,25.28,-1462,47,-370,0
374,304,366,233,265,14004,7848,6572,25.38,-824,-21,26,0
374,305,368,235,264,14116,7748,6848,25.42,-560,-202,-100,0
374,307,369,236,266,14184,7688,6508,25.33,-561,-40,17,0
374,308,370,236,266,14564,6912,5848,25.47,-1568,482,-1887,0
379,339,367,238,266,13152,8924,7288,25.52,-1275,259,-17,0
377,333,375,244,326,15008,7660,7376,25.52,-1057,-319,-578,0
377,337,372,247,324,13552,8624,6492,25.57,102,-105,-152,0
372,335,373,245,315,14052,7860,6644,25.61,-490,82,196,0
373,336,378,246,316,13848,8200,6540,25.52,-411,-581,-116,0
374,337,379,246,314,13432,8804,6276,25.61,-104,379,45,0
374,338,377,246,313,13696,8564,6832,25.61,-554,-99,233,0
374,338,379,247,313,13408,7876,7512,25.66,-1802,653,-280,0
374,339,380,247,313,12568,8200,8892,25.66,-1330,547,-702,0
374,339,380,248,312,12760,8268,8628,25.8,-778,-629,9,0
374,340,380,248,313,13076,8272,8544,25.75,-852,-125,-86,0
374,340,381,248,313,13104,8108,8504,25.94,-577,-216,-18,0
374,340,381,249,312,13000,8312,8320,25.8,-752,-118,-27,0
373,340,382,249,312,13060,7864,8568,25.94,-641,-331,-52,0
373,341,382,249,311,13032,7832,8220,25.99,-661,-293,51,0
373,341,382,250,311,12956,8040,8424,26.08,-721,-379,-35,0
373,342,382,250,311,12892,8084,8416,26.18,-567,-112,22,0
373,342,383,250,311,12512,8636,8544,26.13,-636,-49,71,0
373,342,383,251,311,12232,9084,8080,26.08,-556,-768,122,0
373,343,383,251,312,11884,9196,8796,26.22,-936,224,53,0
373,343,384,251,312,11752,9132,9052,26.22,-604,-443,106,0
373,344,383,252,312,11768,9152,8436,26.18,-700,-44,238,0
373,343,384,252,312,12244,8796,8876,26.18,-795,-215,49,0
373,344,384,252,312,12040,8884,8532,26.32,-697,-180,-41,0
373,344,384,252,311,11952,9256,8852,26.32,-536,-162,61,0
373,344,384,252,312,12160,9072,8820,26.32,-641,-324,-11,0
372,344,385,253,312,12192,8928,8692,26.41,-764,-216,-27,0
373,344,385,253,312,12028,9152,8716,26.37,-644,-47,21,0
373,345,385,253,312,12316,9060,8908,26.46,-608,-220,13,0
373,345,386,254,312,12120,8784,8912,26.55,-587,-355,123,0
373,345,386,253,312,12020,8920,8744,26.51,-773,-270,23,0
373,345,386,254,312,12176,8760,8724,26.55,-721,-95,-10,0
373,346,386,254,312,12112,8844,8508,26.46,-655,-176,112,0
373,346,386,254,312,12236,8980,8860,26.65,-804,-295,-145,0
373,346,387,254,312,12164,8664,8948,26.6,-600,-208,70,0
373,346,387,254,313,12064,8720,8820,26.74,-729,-306,-4,0
372,346,387,255,311,12056,8668,9116,26.79,-580,-112,109,0
372,347,387,255,311,12124,8832,8792,26.74,-712,-266,88,0
372,347,387,255,311,12220,8692,8840,26.84,-778,-360,-70,0
372,347,387,255,312,11892,8580,9188,26.98,-717,-315,41,0
372,347,387,255,312,12004,8584,8984,26.79,-623,-342,71,0
372,348,387,255,311,12024,8892,9212,26.98,-708,-248,-58,0
372,348,388,256,311,12032,8580,8812,26.88,-729,-254,10,0
372,348,388,256,311,12112,8548,9056,26.93,-787,-19,-111,0
372,348,388,256,311,12076,8612,8916,26.93,-846,-239,92,0
372,348,388,256,311,12036,8688,8680,26.88,-578,-48,-40,0
371,348,388,256,311,12260,8560,9168,26.98,-444,-80,-61,0
371,348,388,256,311,12148,8832,8860,27.12,-746,-162,50,0
372,348,388,257,311,12136,8812,8772,27.12,-773,-105,11,0
371,349,388,257,311,12144,8688,8904,27.07,-500,-211,27,0
372,349,388,257,312,12108,8684,9004,27.12,-539,-225,-38,0
372,349,388,257,312,12148,8788,9048,27.26,-541,-266,84,0
371,349,389,257,312,12000,8968,9296,27.12,-653,-232,32,0
371,349,389,258,312,12096,9168,9200,27.21,-672,-284,-64,0
372,349,389,258,312,11988,8736,8856,27.26,-610,-169,4,0
372,349,389,258,311,11904,8840,8768,27.31,-625,-224,-126,0
372,349,389,258,312,12256,8888,9064,27.26,-770,-255,-85,0
372,349,389,258,312,12004,9012,9368,27.31,-503,-236,78,0
372,350,390,258,312,12088,8840,8892,27.35,-693,-172,-1,0
372,350,389,259,312,11944,8832,9472,27.45,-588,-405,26,0
372,350,390,259,312,11940,8704,9024,27.45,-581,54,-248,0
372,350,390,259,313,12148,8536,8800,27.49,-680,-221,-10,0
372,350,390,259,312,11808,8904,9000,27.4,-521,-338,86,0
372,350,390,259,313,11836,8716,8904,27.49,-731,-287,24,0
372,350,390,260,313,11888,8860,9044,27.54,-786,-223,-100,0
372,350,390,260,313,11776,8748,9180,27.54,-689,15,-49,0
372,351,390,260,313,12024,8992,9136,27.54,-718,-570,62,0
372,351,390,260,313,12084,8752,8912,27.59,-622,-169,-17,0
372,351,390,260,313,11900,8712,8940,27.59,-765,-249,-17,0
372,351,391,260,314,11816,8856,9108,27.64,-575,-233,92,0
373,351,391,260,314,11868,8920,9100,27.59,-774,-301,-114,0
373,351,391,261,314,11980,8524,8860,27.73,-672,-377,-28,0
373,351,391,261,314,12076,8848,9064,27.68,-621,-33,70,0
373,352,391,261,314,11888,8824,8836,27.82,-794,-184,-73,0
373,351,391,261,314,12088,8744,9176,27.73,-824,-124,-88,0
373,352,391,261,314,12020,8700,9168,27.82,-637,-535,17,0
373,352,392,261,314,11864,8856,8980,27.87,-647,-161,-217,0
373,352,391,262,314,11896,9084,9244,27.82,-654,-236,-89,0
373,352,392,262,314,11940,9072,8992,27.87,-598,9,69,0
373,352,392,262,314,11764,9224,9100,27.92,-632,-216,-33,0
373,352,392,262,314,11984,8820,8864,27.97,-727,-234,14,0
373,352,392,262,315,11800,8948,8936,27.97,-732,-107,23,0
373,352,392,262,315,12032,9204,8872,28.01,-586,-67,136,0
373,353,392,262,315,12008,8944,9240,27.97,-805,-330,-10,0
373,352,392,262,315,11944,8904,9064,28.01,-619,-326,-38,0
373,353,392,263,315,12012,8968,8932,28.01,-845,-236,-150,0
373,353,392,263,315,12008,8624,8900,28.15,-601,-440,19,0
373,353,392,263,315,11976,8840,9072,28.06,-658,-208,-93,0
373,353,393,263,315,11708,8668,8940,28.11,-770,-150,-126,0
373,353,393,263,315,12028,8732,9040,28.15,-717,-244,-3,0
373,353,393,263,315,12072,8888,9096,28.25,-723,-270,36,0
373,353,393,264,316,11952,8820,9200,28.25,-620,-268,16,0
412,467,477,377,386,-5228,13136,8076,29.61,-623,-209,50,0
412,467,477,377,385,-5120,13044,7956,29.66,-759,-147,39,0
420,389,471,399,417,5840,11400,9576,29.66,-3891,-8117,7532,0
373,360,472,399,420,13200,6764,9136,29.66,-727,-55,131,0
389,329,384,259,311,13716,8180,6588,29.57,-3433,-1999,1906,0
391,351,399,282,327,15416,1972,7460,29.61,-3889,-838,2048,0
425,379,429,332,408,15608,-1148,9428,29.61,-917,-562,-2069,0
394,369,437,362,428,15636,-532,7312,29.52,-1289,-641,-80,0
401,278,321,209,229,12952,10388,8024,29.52,1887,535,-2337,0
411,297,347,236,226,8396,14116,6080,29.66,-625,-52,279,0
416,301,353,242,245,9524,12476,6880,29.52,-733,-376,-60,0
416,303,355,244,246,9620,12236,6948,29.52,-626,-120,208,0
413,304,356,245,247,9588,12636,6836,29.61,-358,-130,51,0
413,306,358,246,249,9704,12624,6684,29.61,-584,-288,-45,0
412,307,358,246,250,9308,11980,4496,29.52,4596,5,779,0
415,306,358,247,253,11632,12400,-1244,29.66,-28,-381,613,0
415,307,359,248,254,11772,12172,-1952,29.42,-817,-551,-149,0
415,308,360,249,255,11608,12076,-1824,29.42,-729,-552,316,0
415,309,360,250,256,11484,12500,-1316,29.47,-716,-384,-57,0
415,309,361,250,257,11680,11680,-2288,29.42,-582,-197,176,0
415,311,362,251,259,11648,11688,-2060,29.47,-692,-227,35,0
415,311,362,251,258,11736,11752,-2156,29.52,-708,-145,-13,0
415,311,363,251,259,11860,11700,-2208,29.47,-865,-88,-76,0
415,312,363,252,260,11804,11608,-1940,29.47,-701,-210,-88,0
415,313,364,252,261,11932,11528,-1976,29.52,-672,-109,8,0
416,313,364,253,261,11828,11528,-1952,29.47,-597,-63,-110,0
415,314,365,253,262,11864,11616,-2112,29.42,-666,-166,-3,0
415,314,365,254,262,12128,11444,-2044,29.52,-659,-242,87,0
416,315,365,254,263,11964,11416,-2080,29.47,-651,-173,51,0
415,315,366,254,263,11960,11612,-1784,29.42,-654,-194,59,0
416,315,366,255,263,11808,11604,-1872,29.42,-794,-97,32,0
415,316,367,255,264,11972,11568,-1844,29.47,-707,-149,1,0
415,316,367,255,265,11884,11860,-1684,29.52,-611,-149,-31,0
415,316,367,256,265,11960,11400,-1820,29.42,-681,-132,-98,0
415,316,368,256,265,11992,11528,-1500,29.47,-566,-361,45,0
415,317,368,257,266,12080,11384,-1500,29.42,-598,-55,-34,0
415,317,368,257,266,12308,11268,-1580,29.42,-722,-195,34,0
415,317,369,257,267,12348,11476,-1680,29.42,-659,9,18,0
416,317,369,258,267,12428,11408,-1540,29.42,-746,-165,-67,0
416,318,369,258,267,12452,11072,-1704,29.47,-632,-188,40,0
416,318,369,258,268,12480,11064,-1636,29.47,-745,-252,-68,0
416,318,370,259,268,12428,11232,-1732,29.38,-710,-131,-4,0
416,318,370,259,268,12444,11276,-1924,29.33,-531,-35,-343,0
416,319,370,259,269,12248,11120,-2172,29.33,-790,-407,446,0
416,319,370,259,269,12832,10444,-2340,29.42,-716,-734,334,0
416,319,371,260,270,12580,10988,-2312,29.33,-932,-350,118,0
416,319,371,260,270,12664,10848,-1984,29.33,-655,-126,-74,0
416,319,371,260,270,12596,10760,-1968,29.33,-673,-124,-71,0
416,319,371,260,270,12612,10980,-1736,29.42,-681,-162,-107,0
416,319,372,261,271,12452,11636,-2212,29.38,-599,-329,98,0
416,320,372,261,271,12460,11112,-1956,29.52,-619,-197,-205,0
416,320,372,261,272,12824,10728,-2100,29.33,-681,-89,-93,0
417,320,373,261,272,12680,10996,-2180,29.47,-656,-230,-63,0
417,320,373,261,272,12628,10912,-2200,29.33,-207,61,-195,0
417,320,373,262,273,12556,11168,-1868,29.28,-724,-237,-18,0
417,320,373,262,273,12620,10916,-1880,29.38,-727,-156,177,0
417,321,373,262,273,12660,10984,-1928,29.28,-653,-200,-15,0
417,321,374,262,274,12512,11080,-1876,29.28,-713,-183,52,0
417,321,374,262,274,12628,10928,-1848,29.42,-747,-171,-44,0
417,321,374,263,274,12644,11000,-1952,29.28,-624,-174,-110,0
417,322,374,263,275,12676,10912,-1744,29.38,-736,-100,-80,0
417,322,375,263,275,12752,10712,-1740,29.28,-513,-140,-96,0
418,322,375,263,275,12700,10748,-1848,29.38,-678,-323,15,0
418,322,375,263,276,12848,10636,-2300,29.28,-647,-264,-55,0
417,322,375,263,276,12876,10668,-2012,29.33,-633,-269,93,0
418,322,375,264,276,12836,10872,-2116,29.38,-621,-21,1,0
418,323,375,264,276,12936,10716,-1972,29.38,-757,-81,118,0
418,322,375,264,277,13016,10560,-1928,29.28,-1746,-488,-2,0
418,323,375,264,277,13160,10512,-1508,29.38,-631,-258,-4,0
418,323,376,264,278,12924,10736,-1748,29.24,-670,-89,-125,0
418,323,376,265,278,13104,10588,-1664,29.38,-635,-124,-54,0
418,323,376,265,278,13068,10520,-1576,29.33,-685,-207,-123,0
418,323,376,265,278,12976,10472,-1788,29.38,-682,-149,-4,0
418,323,376,265,278,13004,10348,-1716,29.33,-728,-214,-248,0
418,324,376,265,278,12920,10420,-1688,29.33,-593,-501,298,0
418,323,377,265,278,12884,10752,-1928,29.33,-751,129,-466,0
418,324,377,265,279,12828,11012,-1672,29.38,-530,-239,197,0
418,324,377,266,279,12744,11020,-1668,29.42,-884,-89,-11,0
418,324,377,266,279,12820,10652,-2612,29.38,-139,442,-460,0
418,324,377,266,279,12944,10820,-1780,29.38,-766,-349,-85,0
418,324,377,266,279,12620,11224,-1812,29.42,-977,-106,-655,0
418,324,378,266,279,13236,10408,-1968,29.38,-604,303,-865,0
418,324,378,266,280,12920,10364,-1800,29.28,-581,-433,289,0
417,324,378,266,280,12252,11648,-1148,29.42,-832,-266,125,0
418,324,378,267,280,12564,10772,-2200,29.33,-450,-96,-132,0
417,325,378,266,280,12704,10720,-1960,29.42,-676,-164,-687,0
418,325,378,267,280,12768,10876,-2012,29.38,-688,-102,-15,0
418,325,378,267,280,12692,11120,-1572,29.42,-773,-407,14,0
418,325,379,267,280,12808,10808,-1864,29.38,-814,121,-706,0
417,326,379,267,281,12948,10704,-1744,29.38,-681,-233,282,0
418,325,379,267,281,12208,11524,-1560,29.47,-623,-219,-114,0
417,326,379,267,281,12800,10628,-1924,29.42,-414,-447,261,0
417,326,379,267,281,12352,10740,-424,29.42,-700,-1051,890,0
417,326,379,267,282,12276,11368,-1124,29.47,-657,-118,-438,0
417,326,379,268,282,12680,10528,-1980,29.38,-937,-34,-261,0
417,326,379,268,282,11852,11408,-1536,29.42,-852,-307,166,0
417,326,380,268,282,12336,11592,-1912,29.33,-888,-190,170,0
417,326,380,268,282,12268,11364,-1988,29.42,-723,-75,-191,0
416,327,380,268,282,12360,11056,-1740,29.38,-709,-177,164,0
416,327,380,268,283,12396,11168,-1868,29.38,-654,-199,86,0
405,374,453,347,375,5344,-4420,16144,28.29,-1059,-608,-42,0
403,372,451,345,372,5352,-4612,16232,28.25,-746,-293,37,0
403,372,451,346,373,5308,-4700,16272,28.39,-675,-263,-47,0
406,386,423,333,374,-1872,8296,32767,28.29,-32768,25345,12906,0
407,380,429,346,382,4516,-4264,16448,28.2,-546,-212,-161,0
407,380,451,342,378,4604,-4388,16684,28.29,-642,-109,-61,0
405,380,450,344,380,4528,-4372,16160,28.29,-186,-130,-155,0
417,372,452,357,397,4388,-2188,16716,28.34,-1424,91,556,0
417,421,476,404,420,1880,-1904,18592,28.29,2236,2701,-1215,0
500,498,497,460,423,908,1344,18432,28.39,-1147,-3024,-2987,0
440,424,474,390,421,340,-3640,15760,28.39,9294,-7571,-1202,0
446,433,477,404,418,536,288,15248,28.34,1405,695,1199,0
444,433,477,405,421,-264,1176,18372,28.44,-9230,775,-227,0
438,406,469,393,413,3096,-6160,16328,28.34,1678,-3965,-898,0
395,408,470,398,396,9088,-3684,14788,28.39,-1712,-342,-416,0
403,410,464,397,396,8008,-3848,15364,28.34,-448,-397,-73,0
405,411,465,397,396,7916,-3840,15328,28.29,-660,-182,-5,0
406,411,467,397,396,7964,-3924,15368,28.39,-823,16,-4,0
406,411,468,397,396,8112,-4092,15236,28.39,-687,-125,-118,0
407,411,462,397,396,7792,-3940,15372,28.39,-513,-393,-61,0
408,410,464,396,396,7884,-3916,15348,28.39,-619,-242,-18,0
408,410,458,396,396,8000,-3896,15236,28.44,-642,-213,-42,0
407,410,466,396,396,7888,-3920,15324,28.44,-629,-254,-9,0
409,410,466,396,396,7908,-3860,15236,28.44,-664,-185,-13,0
407,410,467,396,396,7904,-3868,15304,28.48,-633,-235,-17,0
409,410,465,396,396,7872,-3856,15304,28.48,-616,-223,-9,0
409,410,448,396,396,7772,-3896,15244,28.53,-674,-200,-16,0
410,410,458,396,396,7932,-3928,15368,28.53,-726,-111,-3,0
410,410,462,396,396,7848,-3892,15348,28.53,-658,-237,-16,0
410,409,442,396,396,7912,-3912,15484,28.48,-648,-187,-1,0
409,409,467,395,396,7828,-3904,15400,28.53,-601,-267,-39,0
410,409,466,395,396,7824,-3900,15396,28.53,-702,-171,15,0
411,410,463,395,396,7884,-3928,15288,28.48,-602,-253,6,0
411,410,467,396,395,7888,-3916,15276,28.58,-646,-180,-13,0
411,409,443,395,395,7884,-3920,15348,28.58,-619,-275,30,0
413,409,463,395,395,7844,-3896,15272,28.53,-706,-172,-41,0
411,409,462,395,395,7964,-3844,15344,28.48,-623,-214,-22,0
412,409,465,395,395,7868,-3864,15272,28.58,-626,-179,-5,0
412,409,465,395,395,7952,-3928,15500,28.58,-588,-257,38,0
412,409,463,395,395,7924,-4004,15500,28.58,-603,-249,-16,0
412,409,466,394,395,7960,-3956,15368,28.53,-633,-202,-40,0
412,409,464,394,395,7988,-3860,15308,28.62,-664,-174,-33,0
411,409,459,395,395,7936,-3916,15364,28.62,-698,-218,-22,0
414,409,451,394,395,7984,-3904,15216,28.62,-661,-181,-6,0
413,408,464,394,395,7904,-3968,15300,28.62,-586,-230,-6,0
413,409,460,394,395,8000,-3912,15380,28.62,-613,-212,15,0
410,409,438,394,395,7996,-3932,15400,28.67,-626,-203,-37,0
413,409,465,394,395,7824,-3840,15252,28.62,-574,-312,-11,0
415,409,466,394,395,7876,-3880,15388,28.62,-675,-186,-21,0
413,409,462,394,394,8036,-3832,15348,28.58,-684,-145,-24,0
413,408,466,394,395,7948,-3920,15304,28.67,-657,-186,-29,0
413,408,464,394,394,7992,-3896,15300,28.62,-725,-150,-30,0
412,409,465,394,394,7896,-3916,15476,28.67,-634,-218,-16,0
414,408,466,394,394,7852,-3884,15300,28.62,-635,-211,-28,0
412,408,467,393,394,7884,-3880,15468,28.67,-654,-194,-11,0
413,409,467,393,394,7904,-3912,15388,28.72,-670,-171,-31,0
406,408,461,393,395,7904,-3944,15356,28.72,-881,150,-177,0
394,401,457,389,388,8564,-4364,14920,28.72,-730,-53,7,0
395,401,458,389,388,8520,-4360,14920,28.67,-638,-220,-24,0
395,401,458,389,389,8520,-4428,14852,28.67,-659,-201,-4,0
395,402,458,389,389,8540,-4336,14964,28.62,-643,-230,-20,0
395,402,458,389,389,8528,-4388,14860,28.72,-665,-210,-19,0
396,402,458,389,389,8612,-4372,14948,28.67,-657,-193,-11,0
396,402,459,389,389,8632,-4300,14872,28.72,-624,-197,-13,0
396,402,458,389,389,8512,-4480,14960,28.67,-658,-221,-49,0
396,402,458,389,389,8612,-4264,14844,28.77,-658,-196,-19,0
396,402,458,389,389,8648,-4300,14868,28.72,-647,-191,8,0
396,402,458,389,389,8524,-4408,14956,28.72,-648,-229,-4,0
396,402,458,389,389,8540,-4376,14776,28.67,-684,-210,-15,0
396,402,459,389,389,8536,-4292,14956,28.67,-647,-202,-7,0
396,402,459,389,389,8504,-4328,14896,28.77,-626,-227,-28,0
396,402,459,389,389,8544,-4340,14892,28.72,-653,-211,-30,0
397,402,459,389,389,8496,-4372,14968,28.77,-654,-191,-21,0
396,402,459,389,389,8564,-4292,14840,28.67,-657,-213,22,0
397,402,459,389,390,8620,-4432,14816,28.72,-639,-204,0,0
396,402,459,389,389,8588,-4372,14772,28.77,-688,-192,-18,0
397,402,459,389,389,8520,-4312,14828,28.67,-650,-214,-27,0
396,402,460,389,389,8468,-4296,14912,28.81,-659,-188,-19,0
396,402,459,388,389,8476,-4340,14916,28.72,-646,-195,-24,0
396,402,459,389,389,8544,-4300,14828,28.77,-630,-206,-17,0
396,402,459,388,389,8608,-4400,14900,28.72,-648,-214,-3,0
397,402,459,389,389,8528,-4452,14924,28.81,-643,-223,-20,0
397,403,460,388,389,8524,-4320,14908,28.86,-651,-214,-35,0
396,403,459,388,389,8428,-4404,14888,28.77,-674,-204,11,0
397,402,460,388,389,8552,-4432,14892,28.81,-650,-220,-13,0
397,402,460,388,389,8484,-4316,14968,28.86,-631,-217,-8,0
397,403,459,388,389,8600,-4400,14948,28.81,-649,-206,-5,0
397,403,460,388,389,8624,-4340,14792,28.77,-639,-207,-22,0
396,403,460,388,389,8520,-4400,14836,28.67,-654,-208,-14,0
397,403,459,388,389,8640,-4380,14892,28.77,-683,-216,-14,0
397,403,459,388,389,8608,-4384,14808,28.72,-634,-238,-30,0
396,402,459,388,389,8616,-4452,14868,28.77,-600,-286,-41,0
396,402,459,388,389,8664,-4416,14680,28.81,-628,-176,29,0
396,402,459,388,388,8764,-4392,14752,28.86,-659,-238,7,0
395,401,459,388,388,8844,-4340,14744,28.81,-606,-197,-40,0
395,401,459,388,388,8796,-4392,14780,28.86,-616,-220,2,0
395,401,459,387,388,8736,-4496,14784,28.81,-665,-155,-49,0
395,401,459,387,388,8836,-4452,14664,28.81,-649,-176,-16,0
396,401,459,387,388,8740,-4448,14736,28.67,-620,-211,-25,0
366,417,464,381,390,-5196,-1048,16128,27.82,-695,-268,-59,0
367,417,464,381,389,-5408,-1136,16212,27.82,-665,-270,-30,0
368,417,463,381,390,-5320,-1108,16052,27.92,-600,-176,7,0
368,417,464,381,389,-5420,-1160,16104,27.87,-624,-220,-4,0
369,417,463,381,389,-5416,-1028,16120,27.87,-618,-243,-37,0
369,417,463,380,390,-5200,-1160,16064,27.87,-618,-270,-9,0
370,417,463,380,389,-5380,-996,16068,27.87,-619,-204,39,0
372,417,461,380,389,-5376,-1032,16000,27.87,-623,-88,82,0
372,416,460,379,388,-5060,-904,16120,27.87,-636,-251,-54,0
379,315,390,304,314,15564,-876,7904,28.53,-597,-140,72,1
380,315,390,304,314,15676,-160,8112,28.53,-395,220,378,1
379,307,390,304,314,15440,-824,8624,28.58,-643,-226,-14,1
380,307,391,303,315,15632,-692,8252,28.44,-754,-347,91,1
380,308,391,304,314,15536,-1028,8328,28.53,-656,-276,71,1
380,298,390,304,314,15572,-616,8548,28.39,-498,21,-16,1
378,328,391,304,313,14108,5936,9128,28.48,-2166,-1354,393,1
375,318,391,302,311,10240,4312,11128,28.53,1673,8594,-7075,1
372,324,396,299,299,5788,14248,6512,28.58,-513,-245,-55,1
376,327,395,301,316,15836,4452,10160,28.53,-8351,-3104,9540,1
379,328,395,304,315,15944,-888,7608,28.58,-935,431,-50,1
379,328,394,304,315,15920,-1040,7420,28.67,-783,-52,-102,1
379,328,395,305,309,15852,-880,7440,28.58,-444,-253,22,1
379,328,395,305,312,15700,-1008,7828,28.58,-843,91,90,1
379,328,395,305,311,15828,-1112,7812,28.39,-602,-192,-78,1
379,328,395,305,312,15736,-1052,7872,28.53,-635,-276,-100,1
379,328,395,305,312,15768,-1000,7864,28.53,-649,-242,-90,1
379,328,395,305,312,15648,-1172,7820,28.53,-673,-195,23,1
380,328,395,305,312,15788,-1200,7788,28.67,-596,-191,-75,1
380,328,395,305,312,15704,-1256,7876,28.58,-620,-222,-56,1
380,328,395,305,312,15792,-1172,7896,28.67,-707,-229,-4,1
379,328,395,305,312,15760,-1196,7960,28.67,-585,-134,70,1
379,328,395,305,312,15692,-1184,7936,28.58,-539,-204,-6,1
379,328,395,306,312,15776,-1244,7796,28.67,-607,-209,-39,1
379,328,395,305,312,15752,-1168,7920,28.62,-739,-229,-92,1
379,328,395,305,312,15712,-1288,7864,28.58,-689,-219,-49,1
379,328,395,305,312,15756,-1220,8044,28.53,-595,-112,-25,1
379,328,395,306,313,15740,-1168,7900,28.62,-625,-190,-58,1
379,328,395,305,313,15708,-1268,7920,28.53,-726,-309,-74,1
337,516,343,244,265,15312,-1412,7644,28.62,-1036,164,-1691,1
336,519,352,255,262,15520,-1000,8444,28.62,-904,-359,-16,1
341,519,355,258,264,15496,-1048,8696,28.58,-505,-312,29,1
343,518,357,260,266,14524,1944,10348,28.67,-1447,269,-648,1
342,453,356,262,268,14064,-2020,10676,28.77,-2019,716,479,1
345,448,358,263,270,13952,-2184,9804,28.67,-4918,1996,51,1
346,503,361,264,270,14224,-296,10740,28.72,-161,276,-108,1
347,462,361,265,271,14204,-2372,10260,28.58,-780,8,46,1
346,460,361,265,272,13760,-4160,10144,28.67,-6833,1814,-580,1
350,454,360,266,272,13032,-7048,10472,28.67,410,-1005,231,1
349,499,366,269,274,14532,120,9796,28.67,6983,-1363,-690,1
353,511,365,269,275,14828,3200,7960,28.67,-1107,1776,439,1
355,510,367,271,277,14016,2012,10260,28.72,-5186,159,-1648,1
356,464,364,272,279,13872,-2332,10916,28.62,-1958,-122,-142,1
358,468,365,274,282,13604,-3768,9960,28.77,1026,59,591,1
359,442,368,275,282,13936,-1944,10756,28.81,-1222,273,-292,1
357,493,368,275,281,14840,824,9748,28.72,2823,-1395,197,1
356,492,368,275,282,15988,-24,7444,28.62,-644,-411,425,1
357,494,369,274,282,15844,324,7932,28.72,-888,-23,21,1
357,493,369,275,282,15860,-304,7896,28.67,-592,-68,86,1
358,492,369,274,282,15816,-416,7932,28.67,-573,-55,82,1
358,492,369,275,282,15716,-312,7696,28.67,-531,-186,-21,1
358,491,370,275,282,15764,-432,8212,28.77,-658,-185,-3,1
358,491,370,275,282,15668,-384,7828,28.72,-813,-216,-31,1
358,480,370,275,282,15600,-476,7964,28.72,-591,-303,48,1
358,491,370,276,282,15796,-564,7876,28.72,-662,-145,-111,1
358,493,370,276,282,15660,-532,7780,28.77,-657,-191,-14,1
358,493,370,277,282,15808,-440,7848,28.77,-482,-11,89,1
358,493,370,276,282,15832,-408,7964,28.77,-591,-90,-114,1
358,494,370,276,282,15748,-544,8080,28.77,-673,-184,5,1
358,494,370,276,283,15708,-448,7968,28.77,-672,-303,12,1
358,493,371,276,283,15716,-704,7960,28.77,-803,-270,10,1
358,494,371,277,283,15672,-116,8316,28.86,-735,-247,154,1
358,494,371,277,283,15572,-572,8200,28.77,-693,-169,-95,1
358,493,371,277,283,15564,-564,8336,28.72,-665,-330,-20,1
358,493,371,277,283,15752,-508,8056,28.77,-522,110,217,1
358,493,371,277,283,15768,-1040,7580,28.77,-114,-758,70,1
358,489,371,277,283,15720,-964,7768,28.77,-367,-199,206,1
358,493,371,277,283,15684,-940,7860,28.77,-342,-50,91,1
358,494,372,277,283,15824,-1000,7788,28.77,-536,-111,114,1
358,490,371,277,283,15920,-1132,7832,28.81,-703,-254,-63,1
358,488,371,277,284,15656,-960,7848,28.86,-708,-198,-27,1
358,470,372,277,284,15644,-1344,7856,28.81,-1065,-672,271,1
358,436,372,277,284,15416,-892,8392,28.77,-1410,-72,-663,1
359,454,372,278,284,15348,-1080,8660,28.77,-816,-475,182,1
358,493,372,278,284,15548,-692,8604,28.81,-653,-271,-102,1
358,493,372,278,284,15480,-1104,8168,28.77,-606,-114,14,1
359,491,372,277,284,15520,-1036,8364,28.81,-729,-180,-33,1
358,468,372,278,284,15516,-964,8404,28.77,-686,-248,-28,1
358,446,372,278,284,15528,-840,8412,28.86,-636,-126,8,1
359,458,372,278,284,15512,-1064,8388,28.86,-673,-303,10,1
359,476,373,278,285,15416,-1336,8468,28.77,-665,-621,-34,1
359,467,372,278,285,15508,-1036,8220,28.81,-743,-130,-312,1
359,482,371,278,285,15320,-680,8700,28.81,-476,-218,268,1
359,483,373,279,284,15372,-872,8844,28.86,-748,-32,201,1
359,484,373,278,285,15452,-1244,8424,28.95,-732,-254,25,1
359,484,373,278,285,15556,-1088,8356,28.91,-692,-111,-22,1
359,484,372,277,285,15436,-1072,8524,28.91,-641,-261,-9,1
359,483,373,279,285,15356,-1012,8436,28.86,-568,-228,-2,1
359,483,373,279,285,15280,-1100,8564,28.86,-762,-187,56,1
359,473,373,278,285,15480,-864,8572,28.91,-684,-174,51,1
359,472,373,279,285,15384,-824,8708,28.86,-673,-212,-5,1
359,468,373,279,285,15420,-904,8400,28.86,-757,-302,-99,1
359,469,373,279,285,15484,-1124,8328,28.86,-286,1113,-2044,1
359,474,374,279,286,15220,-68,8880,28.77,-883,-360,109,1
359,475,374,279,285,15344,-536,8676,28.95,-736,-328,-48,1
359,474,374,279,285,15364,-324,8688,28.95,-540,-54,72,1
359,473,374,279,286,15272,-504,8724,28.86,-593,-361,-48,1
359,474,374,279,286,15428,-672,8624,28.91,-640,-261,8,1
360,473,374,279,286,15356,-656,8704,28.86,-676,-138,13,1
359,474,374,280,286,15360,-680,8776,29.05,-708,-229,15,1
359,305,366,273,330,14520,8568,280,26.69,-874,-205,0,1
360,305,366,274,329,14332,8964,220,26.69,-966,-158,-154,1
359,304,366,274,329,13804,9504,1180,26.74,-708,30,-436,1
360,305,366,274,327,13468,9568,1344,26.79,-1397,-411,-556,1
361,308,367,275,329,12968,9960,1168,26.69,-700,-171,-156,1
412,475,438,353,396,13608,11444,1640,26.79,1348,2682,-1775,1
294,511,323,217,233,11892,8992,6328,26.69,-8941,-17551,10155,1
284,511,318,216,238,14852,5732,4992,26.79,-532,-148,-248,1
291,509,308,225,247,14812,6476,7324,26.65,-793,592,-253,1
296,507,325,229,252,14272,7812,7272,26.69,-751,-352,-13,1
298,506,329,231,254,14028,7484,6740,26.69,-1004,-329,-196,1
301,504,330,234,256,13548,7644,7736,26.55,-804,-83,-362,1
302,505,332,233,257,13836,8184,5896,26.69,-1156,67,-544,1
302,505,334,234,258,13928,8252,6196,26.69,-781,-619,-64,1
302,504,334,235,260,13908,8464,6528,26.65,-858,-577,-163,1
301,504,335,235,260,13740,8168,6776,26.74,-644,44,-31,1
297,503,335,236,261,13480,8376,6420,26.6,-1655,-1680,549,1
297,503,335,236,262,13836,8172,6340,26.69,-712,-84,-218,1
298,502,336,236,263,13708,8168,7144,26.69,-809,-197,-27,1
298,502,336,237,264,13456,8416,6828,26.65,-630,-109,-91,1
298,503,336,237,265,13748,8252,6984,26.74,-621,205,-53,1
298,502,336,237,265,13472,8140,6996,26.65,-599,-287,93,1
281,502,337,237,264,13488,9348,5764,26.65,-339,407,-2571,1
302,501,337,238,264,11020,9816,7588,26.74,-511,-1355,-1692,1
322,438,333,242,251,10736,5884,13020,26.79,-6172,-16482,260,1
324,503,337,244,270,11860,5908,10240,26.65,187,-3232,2386,1
323,502,338,245,267,11080,7892,10500,26.74,50,-130,-333,1
322,501,338,245,267,10664,7788,11124,26.79,-745,-303,-101,1
321,499,339,245,264,10616,8364,11312,26.84,-676,148,163,1
321,498,339,245,259,10572,8596,10776,26.74,-725,-36,65,1
320,497,339,246,260,10280,8672,10848,26.74,-676,-364,-111,1
320,495,339,246,261,10164,8520,10900,26.79,-601,325,47,1
319,495,339,246,264,9884,8472,11292,26.79,-709,-118,125,1
321,499,340,246,265,10612,8608,11152,26.84,-613,-317,-305,1
321,500,340,247,262,10208,8164,11444,26.79,-786,-45,196,1
320,499,341,247,262,10156,8300,11552,26.88,-758,134,105,1
319,498,341,247,263,9988,8332,11512,26.79,-606,-290,-42,1
317,498,341,247,262,10076,8616,11616,26.88,-578,-169,10,1
317,498,341,247,263,10032,8572,11464,26.84,-605,-554,108,1
318,497,341,247,264,9872,8324,11412,26.88,-602,-222,-107,1
317,497,341,248,264,10100,8668,11624,26.84,-664,-386,17,1
317,496,341,248,264,9808,8300,11568,26.88,-721,-225,41,1
318,497,341,248,265,9784,8344,11564,26.84,-440,-12,-123,1
318,496,341,249,267,9640,8424,11616,26.88,-730,-204,151,1
318,495,342,249,267,9792,8444,11332,26.84,-547,-158,-26,1
319,496,342,249,268,9728,8444,11560,26.98,-606,-426,-38,1
319,496,342,249,269,9840,8360,11620,26.88,-706,-370,-46,1
318,496,342,249,273,9900,8388,11736,26.93,-501,-472,-181,1
319,496,342,250,274,9792,8344,11516,27.02,-552,-37,-94,1
318,495,342,250,274,9672,8412,11660,26.98,-705,-243,-59,1
318,495,342,249,274,9852,8536,11720,26.93,-673,24,-15,1
318,495,342,250,274,9768,8308,11728,27.07,-710,-271,34,1
318,495,343,250,274,9732,8476,11688,26.88,-622,-376,123,1
318,495,342,250,275,9752,8540,12108,26.88,-733,-168,13,1
319,495,343,250,275,9672,8308,11628,26.98,-432,-294,-113,1
318,495,343,250,275,9592,8000,11536,26.93,-1006,-67,-223,1
318,494,342,251,275,8660,7948,12604,27.07,-801,556,78,1
320,496,338,250,279,9616,7580,12648,26.93,-346,545,-371,1
315,496,344,251,278,9880,8580,11636,27.02,-892,-1769,-757,1
315,495,322,251,278,9760,7872,12196,26.98,-343,251,104,1
313,495,336,251,278,9420,7896,12252,26.98,-600,-103,-13,1
312,495,338,251,279,9416,7808,11912,26.98,-462,-229,473,1
311,495,338,251,279,9528,8028,11964,26.98,-579,-5,86,1
312,495,338,252,279,9676,8068,11932,26.93,-715,-142,-39,1
313,495,339,252,279,9756,8188,11536,26.98,-481,-119,-69,1
308,494,339,252,279,9680,8180,11712,26.98,-612,-571,196,1
315,494,339,252,279,9320,8400,12312,27.02,-380,-321,-50,1
315,494,339,252,279,9136,8032,12272,27.07,-620,-165,-62,1
307,494,339,253,279,9608,8684,11836,27.07,-700,-524,-360,1
301,495,342,252,280,9320,8496,12248,27.02,-749,-237,-114,1
310,495,343,253,280,9256,8296,12264,27.07,-635,-422,-271,1
310,494,341,253,280,9512,8568,11912,27.07,-694,88,23,1
314,494,342,253,281,8508,8712,11768,27.12,-1106,-39,-1235,1
316,494,340,253,281,5936,8412,14496,27.17,-1404,125,-1412,1
317,493,328,254,281,6556,8496,13636,27.12,-652,-523,-315,1
316,494,326,254,282,6504,8472,13676,27.21,-716,-293,218,1
318,494,343,254,282,6836,8660,13488,27.17,-594,-518,-8,1
318,494,341,255,282,6656,8672,13656,27.12,-828,-253,69,1
318,494,345,255,283,6656,8808,13424,27.17,-777,-75,-19,1
318,493,346,255,283,6784,8636,13524,27.12,-785,-220,-187,1
321,494,346,255,283,6564,8512,13336,27.12,-352,-357,-181,1
323,495,346,255,283,7136,8844,13268,27.12,-51,-1003,-112,1
323,494,338,255,283,6964,8868,12992,27.17,-481,-576,-45,1
323,496,332,256,284,7556,8584,13032,27.12,-505,-601,99,1
324,495,323,256,284,7224,8572,13308,27.17,-959,158,-41,1
323,494,326,256,284,6812,8892,13656,27.17,-767,-105,91,1
323,494,326,256,284,6788,8740,13532,27.21,-1029,270,319,1
324,494,333,256,284,7068,8292,13564,27.26,-990,51,-207,1
323,494,330,256,284,6696,8140,13760,27.26,-813,-245,-220,1
324,493,328,256,284,6648,8400,13996,27.21,-672,-728,-47,1
323,493,326,256,285,6744,7944,13888,27.21,-776,-406,161,1
324,493,326,256,284,6900,8472,13568,27.26,-846,198,169,1
323,496,326,256,284,8044,8460,13464,27.17,827,-3615,2557,1
318,497,350,255,288,14548,4392,8460,27.21,-1271,403,496,1
297,497,350,256,289,10264,5120,12584,27.26,-1876,3593,-2244,1
309,495,351,257,290,6928,6444,14168,27.35,-220,-1216,-37,1
316,494,351,257,290,7488,7860,13912,27.26,-638,-298,-35,1
312,496,351,257,290,7144,6720,13972,27.26,-453,651,221,1
316,495,351,257,290,7328,7000,14132,27.31,-1216,242,132,1
317,495,352,258,290,7196,7088,14148,27.21,-544,-228,-235,1
350,330,371,281,310,6084,2484,16280,28.72,-730,-200,-20,1
350,330,371,282,309,6108,2392,16456,28.86,-631,-175,-6,1
350,330,371,282,309,5840,2472,16372,28.72,-577,-84,-320,1
350,330,371,282,309,6032,2352,16316,28.77,-732,-245,28,1
350,330,371,282,310,5972,2156,16236,28.77,-484,-236,-86,1
350,330,371,282,310,6380,2544,16216,28.81,-551,-169,70,1
350,330,370,282,310,6436,2328,16100,28.86,-653,-156,62,1
350,331,371,282,310,6520,2260,16104,28.81,-763,-175,-12,1
349,331,371,283,310,6684,2476,16240,28.86,-447,-37,21,1
350,331,372,280,307,6516,2600,16244,28.81,-633,-352,78,1
350,330,372,280,308,6920,2720,16060,28.86,-866,-141,-28,1
350,331,371,281,308,6828,2624,16076,28.86,-614,-405,-32,1
350,330,372,280,308,6788,2468,16128,28.86,-687,-209,-192,1
350,330,372,280,308,6628,2380,16032,28.95,-648,-352,62,1
350,331,372,281,308,6716,2164,16016,28.91,-657,-264,-11,1
350,331,372,281,308,6704,2136,16564,28.86,-665,-183,-68,1
351,331,372,281,308,6580,2520,16280,28.91,-808,-149,87,1
350,331,372,281,308,6764,2392,16240,29,-640,-304,67,1
350,331,373,279,309,6704,3984,16076,28.91,-1288,100,-508,1
350,331,373,281,309,6712,2424,15964,28.91,-1020,110,-66,1
350,331,373,281,309,6784,2852,16112,28.95,-674,-333,26,1
350,331,373,281,309,7072,2908,15944,28.91,-742,-252,-150,1
351,331,373,281,309,7016,2828,15812,28.86,-605,-131,-4,1
355,332,362,277,305,7532,2304,15572,29,-1400,-1421,1199,1
380,509,371,289,319,7644,1936,16548,28.95,-918,-582,91,1
378,507,372,287,320,7660,1772,15724,28.95,-728,84,-143,1
375,507,370,286,321,7612,1844,16236,28.95,-832,-365,-12,1
378,503,377,286,323,7720,1632,15860,29,-925,-218,104,1
378,503,377,287,322,7876,1648,15848,29,-700,-146,23,1
377,503,377,287,322,7684,1588,15792,29.05,-558,-223,-52,1
376,502,378,286,317,7616,1860,15516,28.95,-697,-279,-151,1
374,501,380,286,314,8016,1916,15496,29.05,-576,-388,-53,1
373,499,379,286,314,8140,1592,15472,28.95,-765,-205,64,1
371,497,379,286,314,8060,1660,15700,29,-598,-65,-61,1
372,496,378,286,314,8176,1516,15632,29,-681,-205,22,1
371,495,379,286,314,7948,1476,15640,29,-993,-253,-118,1
371,495,378,286,314,8156,1580,15552,29,-694,-227,-105,1
371,494,379,286,314,8036,1652,15564,28.91,-811,-180,-76,1
371,493,379,287,314,8116,1700,15644,28.95,-704,-282,72,1
371,493,379,287,314,8096,1592,15636,28.95,-899,-173,-7,1
371,492,379,287,314,8160,1584,15736,29.09,-550,-222,30,1
371,492,379,286,315,7876,1348,15724,29.05,-783,126,92,1
370,492,379,286,314,8000,1480,15516,29,-748,-177,34,1
369,491,379,287,315,8240,1556,15900,28.95,-797,-309,-20,1
369,490,379,287,314,8072,1488,15452,28.95,-760,-165,8,1
369,490,378,287,314,7920,1392,15532,29.05,-386,-47,101,1
369,489,379,287,314,7972,1404,15696,28.86,-832,-225,112,1
369,487,379,287,315,8016,1536,15680,28.95,-847,-285,31,1
370,486,379,287,315,7904,1400,15504,29.05,-650,-227,3,1
369,486,379,287,315,7936,1456,15640,29.05,-671,-76,-15,1
369,485,379,287,315,8180,1416,15784,29.09,-759,-299,26,1
369,482,379,287,315,8108,1380,15668,28.95,-619,-156,15,1
369,481,379,287,315,8012,1384,15768,29,-717,-305,-54,1
369,479,379,287,315,8104,1224,15660,29,-638,-174,29,1
369,478,379,287,315,8104,1232,15684,29.09,-741,-172,-56,1
369,476,379,287,315,7932,1364,15744,29.14,-754,-132,94,1
368,475,379,287,315,8140,1024,15572,29.24,-687,-198,-83,1
368,474,379,287,315,8244,844,15624,29.09,-476,-185,-42,1
368,475,379,288,315,7988,1460,15680,29.05,-590,-145,-32,1
367,476,379,288,315,7784,1300,16052,29.05,-785,-217,-22,1
367,476,379,288,315,7788,960,15684,29.05,-651,-256,-52,1
367,474,379,288,315,8040,1124,15620,29,-690,-233,-22,1
367,473,379,288,315,7924,1440,15720,29.09,-710,-274,-18,1
367,473,379,288,315,7788,1400,15780,29,-569,-155,-112,1
367,472,379,288,315,7772,1144,15816,29.09,-695,-226,-8,1
367,471,380,288,315,7848,1180,15780,29.14,-808,-227,-81,1
367,471,380,288,315,7820,1352,15868,29.14,-733,-169,-61,1
367,470,379,288,315,7732,1124,15852,29.05,-690,-77,3,1
366,469,379,288,315,7492,1244,16096,29.09,-598,-373,146,1
367,469,379,288,315,7700,1076,15864,29.09,-795,-266,-128,1
366,472,379,288,315,7700,1316,15820,29.09,-565,-133,-62,1
367,470,379,288,315,7608,1244,15892,29.14,-581,36,-25,1
366,469,379,288,315,7560,1388,15916,29.14,-587,-299,-49,1
366,468,379,288,315,7572,1176,15832,29.05,-663,-327,47,1
366,467,379,288,315,7844,1316,15704,29.05,-733,-228,-36,1
366,467,380,289,315,7744,1116,16156,29.14,-793,-317,-39,1
366,467,379,288,315,7608,1236,15888,29.14,-515,-257,-87,1
367,467,379,288,315,7648,1044,15848,29.05,-706,-218,-105,1
366,467,379,288,315,7696,1124,16064,29.24,-621,-204,-170,1
367,467,379,289,315,7616,932,16136,29.09,-783,-113,45,1
367,467,379,289,315,7844,1152,15808,29.14,-753,-187,-91,1
366,466,379,289,315,7756,812,15564,29.14,-447,-455,-56,1
367,466,379,289,315,7668,1244,15920,29.19,-823,-161,60,1
367,466,379,289,315,7584,880,15776,29.19,-756,-281,20,1
366,465,379,288,315,7620,772,15772,29.24,-571,-41,14,1
365,465,379,288,315,7112,816,16448,29.19,-491,-227,-77,1
365,464,379,288,315,7436,868,15888,29.24,-861,-116,152,1
365,462,376,288,315,6284,-332,17204,29.33,-1400,2217,483,1
365,460,376,288,315,6764,844,16404,29.19,-911,99,36,1
365,460,376,288,315,6988,600,16144,29.28,-558,-382,-175,1
365,460,376,288,315,7112,728,16008,29.24,-667,-194,-28,1
365,460,376,288,315,7068,964,16340,29.19,-820,-103,-48,1
365,459,376,289,315,7096,636,16152,29.24,-768,-278,-111,1
365,459,376,288,316,7096,796,16200,29.33,-726,-305,-90,1
365,459,376,288,315,7136,820,16096,29.33,-444,-221,-44,1
365,459,376,289,315,7232,740,16200,29.24,-915,-262,70,1
365,459,376,288,315,7216,760,16120,29.33,-644,-249,8,1
365,459,376,289,315,7244,712,16100,29.33,-581,-116,14,1
365,459,375,289,315,7132,876,16124,29.33,-786,-114,104,1
364,461,376,289,316,7304,812,16196,29.42,-484,-371,45,1
373,353,393,263,316,11928,9084,9116,28.25,-556,-339,136,1
373,353,393,264,316,11796,9040,9008,28.25,-586,-385,108,1
374,353,393,264,316,11796,8608,9080,28.2,-537,-91,-74,1
373,353,393,264,316,11680,9076,8964,28.2,-655,-115,46,1
373,353,393,264,316,11692,9228,9512,28.29,-497,-226,103,1
374,353,393,264,315,11876,8792,8720,28.2,-783,-55,13,1
374,353,393,265,316,12056,9132,8340,28.39,-606,-698,-459,1
373,354,393,265,316,11324,9264,10236,28.34,-428,-854,-35,1
374,354,393,264,316,11720,9352,8440,28.29,-824,76,-72,1
373,354,393,265,316,11608,9416,9024,28.29,-703,-109,77,1
374,354,393,265,317,11692,9328,8808,28.29,-785,-101,-113,1
373,354,393,265,317,11636,8984,8768,28.34,-658,-92,12,1
374,354,393,265,317,11696,9360,8848,28.44,-657,-273,-74,1
374,354,393,266,317,11600,9264,9000,28.48,-726,-283,16,1
374,354,393,265,317,11684,9120,8976,28.44,-633,-110,-41,1
365,404,389,264,314,12080,8588,8536,28.53,1120,-1590,-155,1
318,493,360,231,260,11708,8928,9512,28.48,-1080,-692,-238,1
324,498,366,236,268,11792,9052,9352,28.39,-816,-165,-63,1
325,499,367,237,270,11492,8220,9432,28.48,-726,-223,-99,1
326,499,368,237,272,11472,9628,9796,28.53,-661,28,-24,1
327,499,369,238,273,11224,9176,9556,28.48,-719,-402,264,1
328,499,370,240,274,11248,8920,9648,28.53,-769,-109,-36,1
328,498,371,240,275,11360,8908,9508,28.58,-948,-131,-144,1
328,499,371,241,275,11188,8764,9660,28.53,-738,-255,20,1
330,499,373,241,277,11396,9056,9692,28.62,-695,-104,13,1
330,499,373,242,277,11412,8620,9456,28.67,-762,30,29,1
331,498,373,242,278,11336,8668,9684,28.62,-747,-329,57,1
331,499,373,242,278,11272,8864,10164,28.72,-598,-188,-34,1
331,498,373,243,278,11348,8832,10088,28.62,-730,-290,24,1
331,498,374,242,279,11224,9072,9844,28.72,-585,103,198,1
331,498,374,243,279,11344,8444,9888,28.72,-627,-320,51,1
331,498,374,243,279,11380,8976,9916,28.81,-695,-233,48,1
331,498,374,243,279,11392,8468,9768,28.77,-647,-314,61,1
331,498,375,243,280,11580,8596,9848,28.77,-645,-60,43,1
332,498,375,244,280,11420,8648,9860,28.77,-717,22,60,1
332,498,375,244,280,11308,8852,9988,28.67,-844,-114,-27,1
332,498,376,244,280,11504,8788,9880,28.72,-632,-166,15,1
332,498,376,244,281,11432,8636,9740,28.81,-753,-136,-68,1
332,498,376,244,281,11516,8748,9832,28.77,-652,-63,-15,1
332,498,376,244,281,11432,8756,9984,28.86,-716,-251,-146,1
334,498,375,245,282,11272,8708,9924,28.91,-670,-230,148,1
333,498,376,245,282,11464,8756,9828,28.81,-589,-181,69,1
334,498,376,246,282,11256,8660,9980,28.95,-611,-70,-12,1
334,498,376,246,283,11496,8692,9944,28.91,-724,-346,-47,1
334,498,376,246,283,11340,8452,9968,28.91,-658,-1,-153,1
334,498,376,246,283,11368,8512,9704,28.95,-572,-147,80,1
334,498,377,246,283,11340,8640,9912,28.95,-795,-133,-48,1
334,497,377,247,284,11392,8244,9696,28.95,-985,-264,-38,1
335,498,377,247,284,11336,8888,10028,28.95,-707,4,-101,1
335,497,377,247,284,11272,8704,9980,29.09,-602,-379,18,1
335,498,377,247,284,11480,8484,9972,29,-622,-357,-13,1
335,498,378,247,284,11000,8736,9980,28.95,-968,84,-188,1
335,498,378,247,284,11212,9204,9808,28.95,-911,-44,-102,1
335,497,378,247,285,11192,8640,9772,29,-331,-86,67,1
335,497,378,247,285,10820,9496,9932,29,-681,-162,-93,1
335,497,378,247,285,10752,9092,10116,29.19,-618,-185,97,1
335,497,379,247,285,11000,9164,10028,29.05,-723,-313,124,1
336,497,378,248,286,10948,9736,10612,29.09,-598,-111,-121,1
336,497,379,248,287,11008,9200,10320,29.14,-566,-16,-21,1
337,497,379,248,287,10968,9236,10144,29,-662,-273,-74,1
337,497,380,248,287,11000,8976,9856,29.14,-767,-117,48,1
337,497,380,248,287,11192,9000,9892,29.19,-603,-135,-2,1
337,497,379,249,287,10952,8756,9640,29.19,-656,-352,135,1
337,497,380,249,287,11080,8792,10048,29.28,-674,-450,-23,1
338,497,380,249,287,11008,9140,10368,29.09,-642,-399,84,1
338,497,380,249,288,10956,8708,9956,29.19,-686,-157,-73,1
337,497,380,249,288,10904,8848,10144,29.28,-702,-388,8,1
338,497,380,249,288,11092,8780,9884,29.24,-699,-86,107,1
338,497,380,249,288,11108,8624,10032,29.24,-579,-317,-51,1
338,497,380,249,288,11008,9000,10052,29.33,-692,-183,51,1
338,497,380,249,288,10868,8916,10236,29.38,-765,62,-113,1
338,497,380,249,289,11032,8744,10248,29.24,-712,-95,-35,1
338,498,380,250,289,11032,8832,10272,29.28,-679,-345,-76,1
338,498,380,250,289,10916,8912,10316,29.38,-844,-161,-74,1
338,497,381,250,290,11048,8736,10256,29.38,-615,-96,163,1
338,497,381,250,290,11068,8580,9956,29.42,-612,-332,-20,1
338,497,381,250,290,10888,8620,9976,29.38,-589,-68,-31,1
338,498,381,250,290,10920,8784,10428,29.33,-579,-305,-30,1
339,498,381,250,290,11048,8904,10312,29.42,-611,-382,58,1
338,498,381,250,290,10860,8916,10336,29.42,-682,-264,41,1
339,498,381,250,290,10924,8768,10232,29.28,-734,-85,-26,1
339,498,381,250,290,10864,8784,10312,29.47,-728,-296,-33,1
339,498,381,251,290,10832,8868,10100,29.52,-885,-265,55,1
339,498,381,251,291,10888,8852,10288,29.47,-673,-186,-32,1
339,498,381,251,291,10924,8908,10472,29.42,-573,-177,69,1
339,498,381,251,291,10984,8696,10124,29.52,-699,-244,26,1
339,498,382,251,291,10800,8840,10264,29.52,-754,-156,57,1
339,498,382,251,291,10732,8956,10144,29.52,-776,-180,-81,1
339,498,381,251,291,10980,8944,10152,29.47,-715,71,-54,1
339,498,382,251,291,10812,8796,10236,29.57,-580,-149,26,1
339,498,382,252,291,10664,8904,10620,29.47,-751,-386,122,1
339,498,382,252,291,10896,9036,10300,29.52,-654,-292,50,1
339,498,382,252,291,10812,9000,10164,29.57,-651,-27,9,1
339,498,382,253,291,10952,8836,10316,29.66,-811,-174,-52,1
340,498,382,254,291,10664,8904,10412,29.52,-722,-157,-58,1
340,498,383,254,292,10844,9152,10336,29.57,-640,-198,46,1
340,498,383,254,292,10980,8636,10220,29.61,-664,-329,82,1
340,498,382,254,292,10844,8812,10460,29.66,-492,-240,114,1
340,498,382,254,292,10748,8648,10268,29.61,-654,-141,32,1
341,498,382,254,292,10836,8640,10376,29.61,-692,-261,61,1
417,327,380,268,283,12476,11196,-2056,29.33,-636,-172,-20,1
416,327,380,268,283,12608,11012,-1808,29.38,-657,-162,39,1
417,327,380,268,283,12544,10724,-1856,29.38,-734,-190,-97,1
416,327,380,268,283,12544,10988,-1712,29.33,-661,-187,152,1
416,327,381,268,283,13116,10356,-2424,29.42,-898,264,-379,1
417,327,380,268,283,12776,10628,-2656,29.42,-767,72,-686,1
416,327,380,269,283,12264,11284,-736,29.52,-807,-810,416,1
416,327,381,268,284,12052,11452,-1188,29.52,-179,2147,-987,1
416,328,381,268,284,11376,12476,-720,29.47,-767,-89,-594,1
416,328,381,269,284,12300,11032,-1476,29.38,-658,-198,-173,1
415,328,381,269,284,11832,11752,-1240,29.42,-649,-299,478,1
415,328,381,269,284,11816,11992,-1260,29.38,-650,-280,-164,1
415,328,381,269,284,11928,11780,-1548,29.33,-667,-124,67,1
415,328,381,269,284,11736,12040,-1480,29.47,-648,-99,-391,1
415,328,381,269,284,11928,11640,-1476,29.42,-598,-121,-107,1
415,328,381,269,284,12420,10828,-1976,29.52,-241,-868,146,1
415,328,381,269,285,12228,11332,-2376,29.42,-816,618,-669,1
415,328,381,269,285,12848,9860,-660,29.47,-700,-890,342,1
415,329,381,269,285,12088,11216,-2020,29.52,-644,170,-572,1
415,328,381,269,285,12036,11756,-912,29.38,-480,-315,690,1
415,329,381,270,285,12060,11380,-1164,29.42,-660,-165,-120,1
404,500,371,266,284,11468,13288,172,29.42,-10687,3277,-1051,1
323,509,355,233,269,10932,8260,10660,29.47,-363,-220,-163,1
331,509,358,238,272,10900,8988,9940,29.47,-222,-215,6,1
336,508,360,240,274,11036,9164,9920,29.47,43,-152,48,1
339,508,362,241,276,11208,9176,9748,29.47,-717,86,-56,1
341,508,362,243,276,11056,9480,9396,29.47,-518,90,4,1
342,508,363,244,277,11116,9456,9312,29.47,-683,-299,22,1
344,508,363,244,277,11092,9496,9312,29.52,-769,54,6,1
344,507,363,244,278,11232,9480,9160,29.42,-909,79,5,1
345,508,363,244,278,11236,9064,9364,29.47,-739,-40,-3,1
346,507,364,244,278,10988,9376,9532,29.42,-792,-73,0,1
346,507,363,245,279,11088,9280,9496,29.42,-699,-241,88,1
347,507,364,246,279,11168,9248,9432,29.47,-727,-49,-31,1
347,506,364,246,279,11136,9052,9712,29.42,-753,-69,-48,1
348,506,364,246,279,11164,9116,9528,29.42,-742,-105,69,1
348,506,365,246,279,11144,8972,9496,29.52,-616,-246,12,1
348,506,365,246,280,11332,9196,9624,29.42,-662,-233,-91,1
349,506,365,247,280,11252,9268,9292,29.52,-759,-18,-51,1
350,506,365,247,280,11300,8976,9516,29.47,-696,-190,32,1
350,506,365,247,280,11276,9092,9360,29.47,-677,-234,-16,1
350,506,366,247,280,11248,9064,9456,29.38,-668,-39,-73,1
350,505,366,247,281,11272,9084,9432,29.52,-791,-92,-23,1
351,506,366,247,281,11252,9244,9660,29.47,-656,-280,0,1
351,505,366,247,281,11412,8960,9544,29.47,-660,-288,-23,1
351,505,366,248,281,11184,8988,9652,29.52,-648,-114,50,1
351,505,366,248,281,11388,8940,9508,29.52,-696,-204,62,1
351,505,367,248,281,11248,9040,9668,29.61,-618,-197,-50,1
351,505,367,248,282,11480,8636,9352,29.52,-776,-260,-20,1
352,505,367,249,282,11004,9040,10060,29.42,-782,-346,166,1
352,505,367,248,282,11292,9052,9460,29.57,-710,-177,16,1
352,505,367,249,282,11420,9100,9432,29.61,-644,-323,-25,1
352,505,367,249,283,11352,9004,9524,29.57,-747,-289,-51,1
352,505,368,249,283,11460,9116,9384,29.52,-745,-221,-28,1
352,505,368,249,283,11436,8920,9424,29.57,-601,-206,-16,1
353,504,368,250,283,11652,8856,8872,29.57,-696,-385,71,1
353,504,368,250,283,11500,8888,9420,29.47,-599,-126,74,1
353,504,368,250,283,11352,9260,9376,29.61,-670,-88,38,1
353,504,368,250,284,11464,9448,9208,29.61,-660,-161,42,1
353,504,368,250,284,11432,9348,9220,29.57,-829,-371,68,1
354,504,368,250,284,11524,9176,8952,29.52,-553,-212,-3,1
354,504,369,250,284,11664,9248,9044,29.52,-731,-136,-233,1
354,504,369,250,284,10992,9664,9300,29.57,-468,-433,-209,1
354,504,369,250,285,11444,8944,9052,29.57,-914,-371,55,1
354,504,369,251,284,11652,9432,8768,29.52,-834,0,45,1
354,504,369,251,285,11728,9156,8940,29.52,-564,-304,24,1
355,504,369,251,285,11568,9232,9016,29.61,-826,-73,61,1
355,504,368,252,285,11492,9272,9084,29.61,-622,-224,50,1
355,504,369,252,285,11780,9184,8876,29.57,-716,-138,-89,1
356,504,369,252,285,11504,9068,9000,29.52,-778,-130,-55,1
356,504,369,252,285,11424,9312,9116,29.52,-655,-424,39,1
356,504,369,252,285,11652,9152,9088,29.57,-662,-256,35,1
356,504,369,252,285,11440,9264,9260,29.57,-828,82,-254,1
356,504,369,252,285,11088,9504,9328,29.38,-689,-203,-72,1
357,504,370,252,286,11108,9516,9028,29.57,-591,-527,37,1
357,504,369,252,286,11248,9520,9080,29.57,-723,-49,-119,1
357,504,369,252,286,10984,9684,9292,29.52,-558,-197,29,1
357,504,369,252,286,11068,9548,9244,29.66,-826,-341,-51,1
357,504,369,253,286,11236,9368,9280,29.57,-747,154,-87,1
357,504,369,253,286,11340,9268,9240,29.57,-684,-352,116,1
358,503,369,253,286,11440,9288,9208,29.61,-758,-210,-61,1
358,503,369,253,286,11404,9144,9324,29.61,-923,113,-212,1
359,502,369,253,286,11208,9292,9540,29.52,-487,306,233,1
359,501,369,253,286,11816,9484,8396,29.61,-671,-555,-215,1
360,499,369,253,286,12080,9200,8452,29.57,-1003,109,-11,1
360,499,369,253,286,11928,9324,8192,29.61,-513,132,87,1
360,499,369,253,286,11556,9748,9448,29.66,-386,-594,529,1
360,499,369,253,286,12496,9024,7988,29.61,-338,367,156,1
360,499,369,253,286,10836,9560,9608,29.61,-738,1670,301,1
361,499,369,253,286,12072,9468,7748,29.57,-273,-1162,-215,1
361,499,369,253,287,10968,9200,9864,29.57,-1280,1168,-420,1
361,498,369,253,286,11376,9756,8804,29.61,-499,-752,162,1
361,498,369,253,287,11716,9348,8580,29.61,-700,102,-110,1
362,498,369,253,286,10880,9752,9224,29.57,-460,860,-173,1
362,497,369,254,287,10620,9200,9724,29.52,-452,-1712,627,1
362,498,370,253,287,11452,9308,8724,29.61,-1041,-231,-585,1
362,497,370,253,287,10792,9664,9652,29.61,-864,-751,-163,1
362,499,371,254,287,11352,9900,8824,29.57,-701,-36,-70,1
362,499,371,254,287,11360,9668,8948,29.57,-654,-53,-116,1
362,499,371,254,287,11408,9484,8964,29.57,-532,-353,101,1
396,401,460,387,388,8772,-4336,14692,28.86,-634,-211,-17,1
396,401,459,387,388,8840,-4316,14744,28.81,-641,-201,-23,1
396,401,459,387,388,8820,-4504,14776,28.81,-648,-211,-1,1
396,401,459,387,388,8856,-4380,14660,28.86,-622,-197,-9,1
396,401,459,387,388,8940,-4368,14576,28.81,-642,-206,-18,1
396,401,459,387,388,8876,-4440,14688,28.86,-659,-219,-46,1
396,401,459,387,388,8808,-4520,14772,28.81,-651,-188,-21,1
396,401,459,387,388,8760,-4400,14804,28.86,-630,-185,-22,1
395,401,459,387,388,8808,-4464,14704,28.77,-640,-214,-29,1
396,401,459,387,389,8796,-4412,14764,28.86,-646,-211,-31,1
396,401,459,387,388,8708,-4460,14856,28.86,-622,-224,-10,1
396,401,460,387,388,8800,-4380,14604,28.86,-648,-213,-26,1
396,401,459,387,388,8780,-4408,14848,28.81,-610,-218,-19,1
396,401,459,387,388,8688,-4404,14840,28.86,-656,-224,4,1
396,401,459,387,388,8916,-4512,14676,28.81,-653,-201,-25,1
396,401,459,387,388,8896,-4316,14784,28.77,-689,-240,-26,1
396,401,459,387,388,8772,-4408,14732,28.81,-649,-185,-29,1
396,402,459,387,388,8840,-4424,14676,28.77,-656,-199,-30,1
396,401,459,387,388,8852,-4400,14624,28.72,-623,-216,-2,1
396,401,459,387,388,8832,-4396,14612,28.91,-659,-229,7,1
396,401,459,387,388,8928,-4312,14656,28.77,-622,-208,-14,1
396,401,459,387,388,8868,-4396,14832,28.81,-631,-200,-29,1
396,401,459,387,388,8828,-4304,14736,28.86,-629,-208,0,1
396,401,459,387,388,8828,-4392,14820,28.81,-627,-217,-5,1
396,401,459,387,388,8908,-4288,14728,28.77,-650,-222,-37,1
396,401,460,386,388,8788,-4388,14700,28.91,-640,-222,-16,1
396,402,459,387,388,8952,-4400,14872,28.81,-659,-190,-40,1
396,402,459,387,388,8852,-4300,14700,28.81,-655,-227,-18,1
396,402,459,386,388,8868,-4400,14724,28.86,-630,-203,-21,1
396,402,459,386,388,8852,-4324,14656,28.77,-641,-210,-1,1
396,402,459,386,388,8848,-4392,14824,28.86,-635,-211,-14,1
396,402,459,387,388,8912,-4404,14868,28.77,-619,-197,-22,1
397,401,459,386,388,8856,-4284,14700,28.81,-649,-216,-37,1
396,402,459,386,388,8788,-4152,14668,28.86,-635,-235,-13,1
396,402,459,386,388,8872,-4336,14696,28.67,-646,-194,-16,1
396,402,460,386,388,8780,-4400,14660,28.77,-665,-196,2,1
396,402,459,386,388,8892,-4372,14604,28.72,-659,-189,-32,1
396,402,459,386,388,8772,-4536,14740,28.81,-638,-184,-14,1
396,401,459,386,388,8824,-4416,14820,28.81,-641,-221,-23,1
396,402,459,386,388,8804,-4352,14616,28.86,-640,-186,-44,1
396,401,459,386,388,8792,-4432,14712,28.77,-661,-223,-1,1
396,402,459,386,388,8820,-4372,14704,28.67,-641,-206,-17,1
398,403,460,387,392,7912,-4140,15016,28.72,2792,6993,2307,1
420,432,476,400,415,-7092,6544,14176,28.81,1422,2138,634,1
414,438,475,392,418,-8744,11604,8212,28.72,1922,694,-1190,1
444,464,471,392,414,-6000,13368,-4568,28.72,3752,-6138,10691,1
441,452,466,386,403,-8312,17376,6092,28.86,-8134,16708,-1087,1
363,435,456,383,351,-27268,3620,23696,28.72,32767,-8481,-3430,1
408,473,467,385,361,-2784,14840,-4696,28.77,-12592,8719,-13358,1
423,354,420,339,360,-284,9608,-9892,28.72,11472,-14138,3225,1
420,399,446,361,354,6356,12740,-6600,28.62,-6791,2843,-3724,1
424,372,440,354,356,1432,15164,-1236,28.62,948,-2375,-2040,1
423,355,430,348,357,-6244,15408,4356,28.77,-1507,-2062,5461,1
370,265,328,221,256,8636,8776,12940,28.72,-1802,2691,1579,1
330,294,379,276,329,6280,4892,16456,28.67,2734,-13566,-7269,1
356,268,325,215,225,14804,3196,4812,28.81,1258,247,1126,1
428,349,399,297,333,13664,2796,9136,28.62,-8218,1749,-6106,1
435,371,408,323,335,10396,4768,10796,28.67,1374,573,46,1
391,323,370,272,334,12240,-252,12984,28.72,-1074,-1246,643,1
355,298,357,255,297,15408,-716,9380,28.72,-1877,-215,1805,1
369,311,371,263,311,15816,-4332,4380,28.58,3172,-791,-289,1
370,299,401,291,354,16704,-4236,5364,28.67,-122,-482,-1230,1
351,297,354,235,253,15724,732,8920,28.67,12526,-3832,2167,1
309,295,359,242,267,17224,2128,4628,28.72,-1291,86,-2341,1
340,321,385,261,286,15396,-1904,6748,28.62,-5090,1522,97,1
413,346,401,298,342,16228,-2232,6192,28.67,-4389,-2300,6981,1
361,328,397,288,334,15208,-2872,8800,28.67,-1234,238,-3,1
364,329,398,288,332,15180,-2844,8564,28.62,-155,-598,-522,1
365,331,398,289,331,15116,-2756,8880,28.77,-627,303,196,1
365,331,398,289,331,14860,-2292,9200,28.67,-1131,115,287,1
365,331,399,289,330,14816,-2244,9260,28.58,-823,604,15,1
355,315,392,281,293,15580,-2180,8440,28.62,-594,-2130,40,1
321,310,369,258,283,16268,-192,6704,28.58,-1255,3,400,1
334,318,375,260,277,16480,80,6912,28.67,-2083,-158,-311,1
338,321,378,260,280,16304,-1208,6664,28.72,-796,-785,236,1
327,303,357,237,253,17392,3936,4316,28.58,113,-1038,-281,1
349,320,367,249,266,16244,556,6340,28.77,-11188,2377,-4327,1
359,322,372,256,275,15892,-3828,8012,28.67,-4528,-2435,1081,1
359,324,374,257,277,16756,1200,4900,28.62,1514,-558,-2591,1
362,327,377,262,282,16488,520,5900,28.72,-473,-51,90,1
360,333,383,269,296,17040,1292,5996,28.62,-493,976,-1096,1
371,352,403,288,315,16512,1676,5924,28.67,-1050,-925,-453,1
379,352,402,289,313,16512,1488,5840,28.62,-1382,875,-395,1
402,373,421,316,346,15640,2268,6032,28.62,-2734,674,-31,1
380,308,381,271,315,16004,-968,6980,28.58,1426,-510,493,1
369,293,367,252,293,15800,-1604,7476,28.67,-1648,-343,-238,1
393,306,377,265,310,17036,700,6108,28.62,193,-1722,-3476,1
438,334,394,296,340,15432,5764,6296,28.67,-637,-489,400,1
370,320,383,264,297,15876,-388,6624,28.67,-1503,431,-219,1
369,315,373,249,274,16080,-716,7760,28.62,-945,-287,51,1
378,319,371,254,259,16072,-3264,6416,28.53,450,-554,257,1
393,334,389,278,278,15836,-3488,6112,28.67,-1231,-524,-96,1
389,335,397,286,295,16512,-3412,5564,28.58,-694,-157,147,1
378,332,396,284,294,15504,200,8188,28.58,376,2977,-2774,1
373,329,392,279,292,15368,3204,8856,28.62,514,-2029,1610,1
383,331,390,276,281,15348,-4860,3088,28.62,-13685,1597,-192,1
379,326,382,267,272,16520,596,5256,28.72,-1884,-1759,517,1
379,330,386,272,280,15604,228,8336,28.62,-2549,324,101,1
370,330,389,270,282,15608,-304,8024,28.72,-423,-236,67,1
380,334,391,273,282,15500,-336,7992,28.77,-1659,1541,-203,1
372,417,461,380,388,-5232,-856,16200,27.87,-655,-224,-26,1
372,417,461,379,389,-5184,-836,16132,27.82,-640,-201,-3,1
372,417,460,379,388,-5200,-924,16048,27.87,-604,-234,-7,1
372,417,460,379,388,-5208,-948,16216,27.87,-633,-258,-2,1
372,417,459,379,388,-5088,-876,16040,27.92,-613,-115,-51,1
372,416,452,378,389,-5224,-836,16164,27.97,-671,-210,-41,1
372,416,445,378,388,-5116,-844,16172,27.97,-584,-333,42,1
372,416,443,378,388,-5240,-564,16252,27.87,-570,-202,87,1
372,416,443,378,388,-5200,-968,15968,27.97,-722,-79,-77,1
373,416,441,378,388,-5216,-836,16116,27.92,-657,-212,2,1
360,474,374,279,286,15464,-808,8732,28.95,-593,-195,-16,2
360,474,374,280,286,15336,-612,8532,28.81,-753,-247,-17,2
360,475,374,280,286,15312,-780,8616,28.86,-693,-151,-23,2
360,475,374,280,286,15404,-764,8548,28.95,-684,-192,-45,2
359,475,374,280,286,15376,-680,8572,28.77,-603,-67,7,2
360,475,374,280,286,15472,-892,8560,28.95,-683,-245,9,2
360,475,374,280,286,15288,-768,8656,28.95,-732,-279,12,2
360,471,375,280,286,15468,-768,8376,28.95,-344,76,341,2
360,459,375,280,286,15408,-628,8716,28.95,-465,-83,-14,2
360,463,375,280,287,15332,-956,8676,28.95,-784,-412,-52,2
360,472,375,280,287,15464,-732,8728,28.95,-641,-311,24,2
360,477,375,280,287,15316,-892,8600,29,-575,-191,19,2
360,481,375,280,287,15436,-632,8568,29,-598,-292,10,2
360,483,375,280,287,15476,-852,8784,29.05,-629,-157,2,2
360,483,375,281,287,15420,-908,8528,28.91,-711,-245,-8,2
360,483,375,281,287,15392,-764,8500,28.95,-696,-94,49,2
360,483,375,281,287,15464,-804,8492,29,-688,-172,-25,2
360,483,375,281,287,15384,-812,8652,29.09,-637,-184,-31,2
360,483,375,281,287,15380,-876,8688,28.95,-547,-183,-133,2
360,483,375,281,287,15464,-820,8544,29,-682,-169,36,2
360,483,375,281,287,15392,-836,8472,29,-681,-230,2,2
360,483,375,281,287,15440,-924,8596,29.05,-730,-166,14,2
360,483,375,281,287,15452,-896,8588,28.95,-583,-103,-18,2
360,483,375,281,287,15404,-784,8624,28.95,-802,-216,11,2
360,482,375,282,287,15432,-876,8536,29,-751,-142,-53,2
360,482,375,281,287,15472,-780,8604,29.05,-679,-252,-32,2
361,482,375,281,288,15396,-848,8680,29,-587,-158,-47,2
360,480,376,281,288,15460,-880,8496,29,-657,-226,42,2
360,478,376,282,288,15520,-676,8576,29.05,-699,33,-5,2
360,492,512,277,307,15620,-2800,7656,29.05,-1696,-1080,-897,2
361,493,512,277,307,15956,-1624,6900,29,-906,94,-493,2
359,500,511,278,309,15428,2988,8280,29.05,-1821,35,-815,2
353,500,510,279,308,15676,2032,8304,29.05,1272,46,1258,2
357,501,510,279,309,15244,2192,8820,29.05,-767,-268,156,2
355,502,510,280,309,15636,1672,7672,29,-573,-224,180,2
356,499,510,279,309,15728,1732,7736,28.95,-795,-188,-2,2
356,498,509,280,310,15632,1572,7944,29.19,-704,-152,35,2
356,498,509,280,309,15728,1720,7856,29.05,-590,-167,55,2
356,494,509,280,309,15492,2092,8480,29.05,-495,-10,37,2
357,491,509,280,309,15276,2052,8468,29.09,-600,-145,6,2
357,493,509,280,309,15172,1852,8504,29.09,-648,-265,-46,2
357,493,509,280,309,15332,2040,8616,29.05,-611,-219,93,2
358,490,508,280,309,15364,1924,8452,29.14,-677,-235,-8,2
358,490,508,280,310,15396,1676,8160,29,-741,-203,-33,2
357,487,508,281,309,15140,1604,8696,29.14,-1225,-1113,317,2
357,462,508,281,309,15536,1136,7856,29.14,-634,-422,-442,2
357,477,508,281,309,15528,1708,7796,29.09,-646,-94,-264,2
357,476,508,281,310,15472,1544,8040,29.09,-628,-67,-21,2
357,492,507,281,309,15580,1820,8252,29.14,-726,-187,50,2
357,494,508,281,310,15528,1440,8052,29.14,-795,-389,-149,2
357,494,507,281,310,15288,1704,8632,29,-688,-222,-7,2
357,494,507,281,310,15272,1476,8256,29.14,-588,-114,-24,2
357,494,507,281,310,15332,1760,8708,29.09,-528,-234,30,2
357,495,507,281,309,15328,1820,8428,29.09,-589,-85,26,2
357,494,507,281,309,15448,1772,8340,29.14,-564,-117,-133,2
357,494,507,282,310,15336,1796,8300,29.14,-706,-314,13,2
357,494,507,282,310,15212,1712,8784,29.09,-784,-263,26,2
357,494,507,282,310,15472,1812,8296,29.24,-433,172,-137,2
357,494,506,282,310,15336,1268,8284,29.09,-557,-192,158,2
357,494,507,282,310,15308,1948,8424,29.24,-557,-116,76,2
357,494,507,282,310,15356,1576,8296,29.19,-597,-137,68,2
357,494,506,282,310,15356,2012,8256,29.14,-692,-308,-174,2
357,493,506,282,311,15408,1912,8588,29.14,-739,-295,-70,2
357,491,506,282,311,15576,1972,8080,29.14,-659,-220,-136,2
357,488,506,282,311,15460,1308,8232,29.19,-1328,-389,19,2
358,481,506,283,311,15172,1676,8892,29.24,-932,-417,-161,2
358,484,506,283,311,15308,1712,8448,29.14,-897,-372,77,2
359,480,506,283,311,15272,1476,8700,29.14,-724,-181,49,2
359,488,506,283,311,15224,1648,8644,29.19,-780,-75,-31,2
359,491,506,284,311,15284,1428,8508,29.19,-660,-220,-84,2
359,490,506,283,311,15264,1564,8772,29.24,-768,-278,-83,2
360,489,506,284,312,15316,1560,8620,29.05,-811,-89,-64,2
359,488,506,284,311,15304,1956,8848,29.24,-257,-153,197,2
360,487,506,284,311,15280,1664,8800,29.24,-485,40,116,2
360,485,506,284,312,15480,1264,8708,29.19,-968,-704,478,2
359,504,505,284,312,15764,4,8284,29.19,-453,-210,73,2
360,505,505,285,311,15712,-448,8172,29.14,-659,-219,-163,2
360,505,505,284,311,15584,-468,8216,29.33,-701,-149,116,2
361,505,505,284,312,15540,-292,8260,29.28,-637,-44,-5,2
361,506,505,285,311,15488,-496,8172,29.24,-555,-170,-1,2
361,504,505,285,311,15544,-416,8156,29.19,-697,-248,-93,2
361,492,505,285,311,15580,-532,8260,29.24,-579,-157,-67,2
361,494,505,285,312,15756,-104,8300,29.19,-607,-517,66,2
361,497,505,285,312,15532,-64,8280,29.19,-952,-198,-192,2
361,489,505,285,311,15200,56,9044,29.28,-965,-168,-52,2
361,489,505,285,312,14852,536,9684,29.28,-569,-309,277,2
361,489,505,286,312,15196,440,8700,29.38,-575,-249,-52,2
361,486,504,286,311,15316,216,8792,29.14,-669,-163,66,2
361,488,504,285,311,15276,84,9024,29.28,-700,-251,-23,2
361,487,505,285,311,15224,124,8888,29.24,-600,-187,-2,2
361,484,505,285,311,15148,52,8748,29.28,-637,-114,-39,2
361,487,505,285,312,15288,180,8872,29.24,-638,-202,-32,2
361,480,505,286,312,15256,344,8880,29.28,-712,-271,-82,2
361,488,504,286,311,15276,76,8792,29.28,-715,-221,-49,2
361,488,505,286,311,15316,444,9076,29.33,-423,-104,201,2
361,489,505,285,312,15472,112,8640,29.24,-601,-139,-62,2
361,490,504,286,312,15400,36,8768,29.33,-632,-139,-44,2
361,488,504,286,312,15448,-76,8656,29.33,-694,-199,41,2
361,486,504,286,312,15368,-120,8508,29.33,-636,-166,27,2
362,485,504,286,312,15412,-192,8580,29.33,-653,-128,10,2
318,494,352,258,290,6868,6804,14652,27.35,-709,350,290,2
317,494,352,258,290,7332,7024,14196,27.49,-855,-401,13,2
318,495,352,258,290,7108,7368,14356,27.45,-771,-1014,228,2
319,496,352,258,291,10936,4852,12960,27.45,495,-4489,529,2
311,491,337,260,292,13044,3692,11136,27.31,-1125,-684,1491,2
310,495,352,259,288,14340,5388,8764,27.45,-758,1608,434,2
312,495,349,259,289,14408,4248,9000,27.49,-1183,21,-2157,2
313,495,346,259,289,13512,4968,7276,27.4,-324,-933,1091,2
313,494,347,260,289,13712,4528,9440,27.49,-376,-224,-80,2
312,493,348,259,290,13960,5256,8896,27.54,-712,-803,-553,2
313,494,350,259,290,14920,5676,8748,27.4,-446,-432,390,2
312,497,350,258,288,14644,4988,8212,27.45,-505,-163,-118,2
312,496,347,259,288,14532,5420,8000,27.45,-356,-257,-47,2
313,494,347,259,288,14736,7204,7572,27.45,-961,-1203,118,2
324,501,500,263,307,12620,1476,7652,27.45,-2524,489,858,2
324,505,502,265,310,12568,3684,11448,27.49,-738,342,-317,2
327,505,502,266,310,14628,6064,14292,27.54,1299,1507,670,2
330,503,501,266,309,12112,7400,10696,27.49,-175,-1559,-1733,2
323,506,497,267,309,14804,7672,11376,27.45,913,1912,-4204,2
338,504,501,267,307,7948,6296,8912,27.45,-4332,-2897,1820,2
341,504,491,267,309,11720,7716,11408,27.49,173,-455,-204,2
343,501,489,268,311,11072,7028,11432,27.49,-521,-1051,971,2
340,504,499,268,311,10688,7944,11056,27.54,20,-970,342,2
333,505,498,266,311,11240,9132,9388,27.59,17,-228,-150,2
338,471,496,267,312,10448,6944,13172,27.64,-9757,1528,-2477,2
341,483,497,267,312,11384,7320,11000,27.59,-1569,929,-563,2
341,498,497,268,313,10936,7064,10708,27.64,-226,-666,18,2
344,502,497,269,314,10916,7268,11180,27.68,-673,120,105,2
344,502,497,269,314,11452,7384,10860,27.64,-1228,-1292,196,2
342,502,497,269,314,11600,7624,10832,27.68,-734,-213,-226,2
340,502,497,269,314,11068,7564,10868,27.64,-953,-423,-48,2
341,502,497,269,314,10996,7680,11416,27.64,-1003,-763,208,2
341,502,496,270,314,10856,7636,10904,27.68,-377,-162,39,2
340,502,496,270,314,11360,8116,10572,27.73,-817,300,-428,2
340,502,496,270,314,10912,7792,10964,27.78,-472,-135,-175,2
339,502,496,270,314,10768,8156,11232,27.73,-444,-269,-145,2
338,502,496,269,314,11076,7812,11116,27.68,-584,-29,-16,2
338,502,496,269,314,10596,7924,11036,27.68,-710,-50,-206,2
337,502,496,269,314,10572,7916,11372,27.73,-778,-203,16,2
337,502,495,270,314,10832,7864,11280,27.68,-598,-251,28,2
337,502,495,270,315,9616,7756,11068,27.78,17,-766,476,2
337,502,495,270,314,10036,7956,10848,27.87,-865,-125,-298,2
337,502,495,270,314,10804,8280,10800,27.73,-664,-188,-69,2
337,502,494,270,314,11084,8272,10844,27.78,-319,-451,-245,2
337,502,494,270,315,10756,8788,10760,27.78,-432,-617,143,2
337,502,494,270,315,10488,8116,11428,27.87,-636,199,-248,2
337,502,493,270,315,10380,8232,11476,27.82,-477,-75,32,2
305,501,490,270,315,11068,8132,10772,27.87,-31,-1976,759,2
316,501,482,270,314,11644,8328,7648,27.92,81,-2450,4294,2
335,501,480,270,314,13632,7576,7940,27.92,-1240,8,64,2
336,500,479,270,314,13024,10396,9532,27.92,409,-3079,-3191,2
335,500,480,270,314,13652,8112,6980,27.82,-770,-354,58,2
335,500,480,270,314,13612,9300,6576,27.82,-4777,4168,-1300,2
336,500,477,270,314,12844,7884,8836,27.87,-534,313,-322,2
336,500,477,271,314,12864,8016,8780,27.87,-983,-440,-83,2
336,500,476,271,315,12940,7708,8516,27.92,-676,-406,-16,2
337,501,475,270,315,13104,8236,8632,27.92,-527,116,215,2
337,500,476,270,315,12856,7792,8544,27.92,-874,-321,-62,2
337,500,459,270,315,12572,7732,8784,27.87,-780,-231,-80,2
337,500,463,270,315,12744,7968,8696,27.92,-743,-188,55,2
335,499,452,269,312,11620,11564,6428,28.01,-822,858,1327,2
334,495,484,269,313,12716,10444,4424,27.97,-1165,-239,-261,2
335,498,482,269,314,11628,10296,6300,27.82,-593,-595,230,2
331,494,464,269,314,12632,10004,5816,27.92,-1338,518,2336,2
325,499,476,263,314,13648,9656,6480,28.06,-744,-73,-1113,2
328,499,471,272,315,15448,9052,5348,28.06,-3225,3333,1243,2
337,499,481,272,315,14416,8228,5900,27.87,291,-837,-253,2
337,499,483,272,316,14008,8036,6000,28.11,-723,289,-149,2
338,499,492,273,316,13808,8236,6140,27.97,-612,-152,-161,2
338,499,485,273,315,13864,8076,6288,28.01,-542,-18,311,2
337,499,486,273,315,13752,8280,6252,27.97,-832,-288,-203,2
338,499,486,273,316,13772,8368,6388,28.01,-888,39,310,2
338,499,474,273,316,13808,9152,6028,27.97,-1152,-385,-609,2
338,499,475,273,316,13336,8200,6660,28.01,-525,59,98,2
338,499,472,273,316,13448,8416,6996,27.97,-931,-781,-201,2
338,499,472,273,316,13556,8372,6636,28.15,-642,-77,16,2
338,499,473,273,316,13560,8348,6772,27.97,-694,-154,-28,2
338,499,473,274,316,13520,8284,6784,28.06,-645,-112,79,2
338,499,476,273,316,13484,8336,6888,27.97,-533,-167,20,2
339,498,483,273,316,13284,8236,7088,28.06,-769,-202,18,2
339,498,488,274,316,13552,8388,7200,28.06,-690,-378,-16,2
339,498,488,274,316,13336,8392,7116,28.01,-705,-264,-80,2
338,499,488,274,316,13480,8348,7280,28.11,-716,-131,40,2
338,499,488,274,316,13428,8468,7044,28.06,-543,-32,63,2
339,498,488,274,316,13440,8292,6828,28.2,-575,-5,-54,2
339,498,488,274,316,13536,8428,7076,28.11,-634,-167,-2,2
339,498,488,274,316,13700,8404,7176,28.01,-787,-311,95,2
339,498,487,274,316,13356,8500,7816,28.15,-96,-218,195,2
339,498,487,274,316,13556,8536,7092,28.15,-683,-408,-47,2
339,498,487,274,316,13348,8272,7112,28.15,-704,-328,-35,2
339,498,488,274,316,13504,8424,7108,28.2,-629,-66,108,2
339,498,487,274,316,13396,8160,7344,28.15,-510,-398,-99,2
339,498,487,274,316,13348,8144,7576,28.2,-795,-145,-16,2
339,498,489,274,316,13128,8316,7144,28.2,-755,64,-251,2
339,498,489,274,316,13308,7952,7236,28.06,-848,-430,-34,2
339,498,484,274,316,13164,7832,6912,28.11,-746,-914,126,2
340,498,474,274,317,13156,8416,7540,28.25,-414,-59,135,2
339,498,478,274,316,13288,8628,7612,28.25,-556,-156,-19,2
339,498,477,274,316,13072,8336,7304,28.2,-776,83,4,2
339,498,479,274,316,13096,8264,7844,28.15,-639,-510,161,2
364,462,375,289,316,7248,860,16164,29.33,-651,-241,3,2
364,462,376,288,316,7108,960,16216,29.38,-814,-282,-94,2
364,462,376,288,316,7112,964,16168,29.42,-592,-162,-41,2
364,461,376,289,316,7244,1008,16180,29.28,-747,-129,-9,2
364,466,375,289,316,7232,908,16028,29.38,-578,-229,-98,2
362,465,376,289,315,7344,1040,15972,29.33,-794,-138,-132,2
362,464,376,289,315,7388,1064,15848,29.42,-644,-177,-43,2
363,464,376,289,315,7248,856,15976,29.47,-497,-65,0,2
362,463,375,289,315,7156,984,16156,29.33,-533,-294,-24,2
363,461,375,289,315,7308,1016,16040,29.42,-578,-224,-67,2
363,465,375,289,315,7700,908,15928,29.28,-764,-229,-35,2
362,466,375,289,315,7468,1028,15996,29.33,-808,-264,-96,2
362,466,375,289,315,7284,1096,15864,29.38,-798,-180,-149,2
362,465,375,289,315,7292,1108,16012,29.33,-749,-172,52,2
362,464,375,289,315,7460,896,15936,29.33,-691,-158,-69,2
362,463,375,289,315,7272,900,16208,29.33,-546,-247,-27,2
362,464,375,289,315,7336,1264,16176,29.28,-826,-283,-79,2
362,463,375,289,315,7284,1188,16304,29.24,-866,86,-188,2
362,462,375,289,315,7124,976,16180,29.33,-595,-149,-40,2
362,461,375,289,316,7192,864,16192,29.28,-638,-112,57,2
362,462,375,289,316,7168,1048,16124,29.28,-553,-177,-18,2
362,463,375,289,315,7216,1016,16096,29.33,-648,-90,14,2
362,467,375,289,316,7136,1116,16056,29.38,-581,-170,39,2
362,468,375,289,316,7068,1284,16292,29.33,-652,-305,-48,2
362,469,375,289,316,7156,1120,16180,29.24,-717,-97,29,2
363,470,375,289,316,7224,1084,16080,29.24,-728,-231,36,2
363,470,375,288,316,7176,1196,16012,29.38,-756,-172,-97,2
363,470,375,289,316,7184,1252,16136,29.33,-698,-264,-80,2
362,468,375,289,316,8560,852,17592,29.38,546,-3697,931,2
327,496,493,290,312,12180,-1232,12568,29.33,-1082,-1661,1092,2
363,494,492,297,315,14092,-1004,10500,29.38,117,-476,-125,2
366,491,472,296,289,14352,-2496,10636,29.33,-959,-125,239,2
357,485,460,293,284,14024,-1088,10408,29.33,-1244,-303,-60,2
354,484,491,298,302,13920,-1348,10776,29.28,-878,5,13,2
353,480,488,298,305,14124,-1308,10656,29.28,-410,-53,42,2
354,476,484,298,307,14288,-1272,10648,29.28,-729,-276,-17,2
354,475,483,298,308,14220,-1396,10584,29.33,-627,-211,-52,2
353,471,480,299,308,14100,-1348,10688,29.14,-801,-223,71,2
353,470,479,299,309,14024,-1256,10804,29.14,-684,-200,-8,2
353,469,478,299,309,14184,-1068,10556,29.14,-734,-235,-125,2
354,469,477,299,309,13956,-1328,10612,29.24,-910,-197,95,2
354,468,477,299,309,14056,-1088,10616,29.24,-525,40,203,2
354,468,476,299,310,13844,-1036,10608,29.28,-706,-188,-52,2
354,468,476,300,309,13972,-1132,10584,29.24,-662,-103,-27,2
354,468,476,300,310,14052,-1108,10692,29.28,-927,-258,53,2
354,468,475,300,310,13888,-868,10680,29.33,-606,-159,-4,2
354,467,475,300,310,14164,-1084,10620,29.24,-806,-266,3,2
354,467,475,300,310,14172,-1192,10752,29.24,-766,-227,14,2
353,467,474,300,309,14116,-1140,10592,29.33,-618,-351,-83,2
354,465,474,300,310,14120,-976,10476,29.28,-700,-192,-33,2
354,465,473,300,310,14068,-1208,10592,29.14,-618,-223,34,2
354,465,473,300,310,14072,-1056,10732,29.24,-563,-127,31,2
353,464,473,300,310,13980,-1132,10744,29.19,-706,-290,-16,2
354,464,473,301,310,13992,-1156,10720,29.24,-530,-140,11,2
354,463,472,301,310,13948,-796,10612,29.28,-496,-269,-6,2
354,462,472,301,310,14048,-1036,10652,29.14,-529,-235,-158,2
354,462,471,301,310,14036,-956,10872,29.19,-772,-367,-147,2
354,462,471,301,311,14144,-860,10604,29.19,-778,-85,48,2
354,461,471,301,311,14100,-1164,10696,29.09,-610,-300,-128,2
354,461,470,301,311,14076,-892,10584,29.14,-713,-212,23,2
354,461,470,301,311,14156,-808,10596,29.19,-592,-304,-9,2
354,460,470,301,311,13972,-988,10744,29.19,-771,-178,-8,2
354,460,470,301,311,14144,-1164,10704,29.19,-613,-229,-153,2
354,461,469,301,311,14064,-1088,10756,29.09,-695,-79,18,2
354,461,468,301,312,14180,-1020,10664,29.19,-550,-225,16,2
354,460,467,301,312,13984,-1144,10588,29.05,-589,-236,30,2
353,460,467,301,311,13948,-1060,10700,29.19,-601,-169,48,2
354,460,467,301,312,14016,-964,10756,29.19,-650,-81,-24,2
354,460,467,302,312,14024,-1104,10584,29.19,-747,-256,-105,2
354,460,467,302,312,14200,-1044,10696,28.95,-831,-210,-20,2
354,460,467,302,312,14176,-1076,10304,29.09,-689,-246,-35,2
354,460,466,302,312,14188,-1116,10744,29.24,-661,-221,-157,2
354,460,467,302,312,14252,-1096,10696,29.09,-407,-56,38,2
354,460,466,302,312,14164,-964,10432,29.14,-655,-274,3,2
354,460,466,302,312,14204,-788,10408,29.19,-692,-153,1,2
355,460,466,302,313,14196,-656,10564,29.05,-720,-159,-94,2
354,459,466,302,313,14280,-780,10428,29.19,-649,-218,-11,2
355,459,466,302,313,14216,-604,10656,29.05,-601,-73,40,2
354,459,466,302,313,14336,-860,10520,29.19,-659,-123,4,2
355,458,465,302,313,14236,-912,10412,29.05,-731,-128,3,2
354,459,466,303,312,14100,-508,10668,29.19,-721,-215,-23,2
355,460,466,303,313,13976,-704,10940,29.33,-422,-929,-395,2
355,459,465,303,313,13948,-320,11072,29.09,-468,-259,-162,2
355,458,466,303,313,13972,-512,10948,29.24,-926,-314,383,2
355,456,465,304,313,14120,-120,10468,29.14,-521,-327,-78,2
355,455,465,304,313,14316,-392,9956,29.24,-360,-9,536,2
355,455,465,304,313,13768,-704,11152,29.24,-851,-686,-140,2
355,453,465,304,313,13680,-220,11012,29.05,-912,-280,-193,2
355,453,465,304,313,13940,-296,10876,29.24,-724,-91,89,2
356,453,465,304,313,13748,-172,10976,29.19,-534,1,-147,2
355,458,465,304,313,13748,16,10904,29.19,-568,-455,-144,2
355,455,464,304,313,13980,-112,10716,29.19,-617,-323,-57,2
355,455,464,304,313,13832,-184,10716,29.14,-830,-381,11,2
355,452,464,304,302,14220,-192,10528,29.19,-681,-284,31,2
355,451,464,305,314,14244,-20,10812,29.19,-407,-655,-287,2
354,449,464,305,313,14316,548,9816,29.14,-527,377,-1268,2
355,449,462,305,314,14136,188,10612,29.14,-1235,675,-79,2
354,450,462,305,313,14052,308,10428,29.19,-804,-721,-283,2
354,450,462,305,313,13912,268,11084,29.14,-694,-489,-17,2
355,445,462,305,313,13828,536,10884,29.14,-699,-30,85,2
341,499,383,255,292,10744,8704,10316,29.61,-662,-242,-33,2
341,499,383,254,292,10872,9028,9756,29.66,-816,515,69,2
341,498,383,255,292,10716,8744,10472,29.71,-647,-52,-4,2
341,499,383,255,292,10696,8712,10364,29.75,-817,-365,-128,2
342,499,383,255,292,10920,9212,10288,29.71,-760,-126,-161,2
341,499,383,255,293,10896,8896,10492,29.75,-573,-400,57,2
342,499,383,255,293,10908,8928,10232,29.71,-579,-122,-12,2
342,499,383,255,293,10656,8936,10280,29.8,-693,-188,10,2
342,499,383,255,293,10748,8736,10416,29.8,-686,-132,-101,2
342,499,384,255,293,10924,9044,10544,29.8,-695,-113,57,2
342,499,383,255,293,10968,8504,10040,29.75,-675,-339,-5,2
342,499,384,255,293,10944,8920,10296,29.8,-789,-183,-37,2
342,499,383,255,293,10868,8960,10448,29.8,-662,-401,34,2
342,499,384,255,293,10788,8700,10252,29.89,-683,-373,44,2
342,499,384,255,293,10884,9140,10620,29.85,-643,-56,-47,2
342,499,384,255,293,10788,8904,10388,29.94,-590,-196,-127,2
342,499,384,255,293,10788,8524,10240,29.85,-735,-215,76,2
342,499,384,255,293,10872,8740,10420,29.89,-654,-300,-83,2
342,499,384,255,294,10808,9284,10364,29.94,-441,73,146,2
342,499,384,255,294,10656,8984,9848,29.8,-619,-355,-61,2
342,499,384,255,294,10820,8660,10128,29.8,-738,-213,50,2
342,499,384,256,294,10728,9260,10232,29.75,-810,-290,54,2
342,499,385,255,294,10908,8756,10432,29.89,-600,-550,-143,2
342,499,384,256,294,10612,8736,10324,29.99,-641,-459,117,2
309,500,495,231,266,10268,8584,10968,29.94,2917,345,524,2
316,505,500,228,270,10024,9164,9968,29.94,-174,952,-240,2
319,506,500,232,275,10136,9100,10304,29.99,-324,-151,115,2
320,506,501,233,277,10024,9612,10780,29.99,-843,-154,-44,2
320,507,500,233,277,10088,9112,10720,29.94,-696,96,-97,2
321,507,500,233,277,9736,9384,10788,30.08,-753,-93,-66,2
323,507,500,234,277,9792,9196,10744,29.94,-898,-225,-121,2
323,507,500,234,278,9924,9428,11116,29.94,-574,-287,-16,2
323,507,500,235,278,10008,9424,10956,29.94,-634,-237,-71,2
324,507,499,235,279,9900,9244,10884,29.99,-529,-63,21,2
324,507,499,235,279,9916,9208,11048,30.04,-868,-381,-53,2
324,507,499,235,279,9820,9092,10824,29.99,-678,-356,0,2
324,507,499,235,279,9940,9120,11048,29.99,-554,-107,87,2
324,508,499,235,280,9704,9276,10864,30.04,-720,-176,-19,2
325,508,499,236,280,9592,9240,11156,30.04,-686,-70,-116,2
325,508,499,236,280,9836,9412,11092,30.13,-521,-428,142,2
326,507,499,236,280,9680,9064,11320,30.04,-636,-642,19,2
326,508,499,237,280,9712,8932,11060,29.99,-666,-7,-36,2
326,508,499,237,281,10024,8968,10880,30.08,-553,-41,83,2
326,507,499,237,281,9716,9432,10960,30.04,-567,-327,-75,2
327,508,499,237,281,9844,9128,11136,30.04,-605,-274,61,2
327,508,499,237,281,9504,8948,11072,30.04,-467,-384,84,2
327,508,498,237,281,10100,8840,11108,29.99,-662,-229,117,2
327,508,498,237,281,9252,9852,11040,29.99,-648,-591,-192,2
327,508,498,238,282,9588,9684,10592,30.13,-895,-583,-117,2
327,508,498,238,282,9444,9912,11128,29.99,-724,-132,-365,2
327,508,498,238,282,9648,9400,10720,30.08,-772,466,-54,2
327,508,498,239,282,9564,9960,10668,30.18,-445,128,-18,2
327,507,498,238,282,9628,9600,11004,30.04,-620,-438,33,2
328,508,498,239,282,9712,9512,10988,30.04,-639,-70,118,2
327,508,498,239,283,9692,9892,10908,30.08,-671,-256,-93,2
327,508,498,239,283,9620,9656,10904,30.13,-703,-285,-2,2
328,508,498,239,283,9744,9388,10832,30.18,-572,-133,27,2
328,508,498,239,283,9532,9780,10780,30.18,-549,-279,117,2
328,508,498,239,283,9576,9776,10892,30.13,-733,-2,-24,2
328,508,498,239,283,9460,9492,11032,30.13,-609,-350,7,2
328,508,498,240,283,9576,9736,10912,30.18,-637,-212,178,2
328,508,498,239,284,9612,9736,10816,30.13,-745,-211,-88,2
328,508,498,240,284,9736,9720,10528,30.08,-880,604,-175,2
328,508,497,240,284,9652,9720,10656,30.18,-832,15,-124,2
328,508,497,240,284,9348,10100,10840,30.13,-521,-74,62,2
328,508,497,240,284,9608,9420,10620,30.13,-781,-347,-87,2
328,508,497,240,284,9520,9608,10528,30.08,-674,47,-22,2
329,508,497,240,284,9596,9532,10620,30.18,-768,-318,98,2
329,508,497,240,284,9400,9948,10492,30.18,-692,-63,55,2
329,508,497,240,284,9672,9720,10564,30.08,-551,-62,109,2
329,508,497,240,284,9656,10164,10716,30.18,-654,-247,56,2
329,508,497,240,284,9648,9900,10648,30.08,-673,-373,-12,2
329,508,497,241,285,9496,9508,10464,30.18,-616,-256,-85,2
329,508,497,240,285,9432,10120,10128,30.18,-873,-3,-59,2
329,508,497,241,285,9568,9676,10208,30.18,-778,-266,-187,2
329,508,497,241,285,9648,9632,10268,30.18,-637,-65,-128,2
329,508,497,241,285,9724,9844,10380,30.22,-661,-394,-16,2
330,508,497,241,286,9552,10264,10232,30.18,-660,-124,124,2
329,508,497,241,285,9580,9624,10148,30.18,-713,-555,-288,2
329,508,497,241,285,9580,10040,10252,30.18,-755,-104,-180,2
330,508,497,242,286,9864,9968,10316,30.22,-562,-135,-46,2
330,508,497,242,286,9756,10052,10164,30.13,-805,-37,-83,2
330,508,497,242,286,9676,10212,10116,30.27,-652,-157,75,2
330,508,497,242,286,9584,10016,10096,30.18,-735,-335,-91,2
330,508,497,242,286,9660,10144,10456,30.22,-678,-411,57,2
330,508,497,242,286,9532,10388,10096,30.27,-670,-125,-77,2
330,508,497,242,286,9684,10336,10260,30.18,-625,-199,40,2
330,508,497,242,286,9684,10120,10256,30.22,-810,-284,-40,2
330,508,497,242,287,9672,10040,10432,30.18,-685,-311,14,2
330,508,497,243,286,9504,10432,10812,30.18,-601,-250,106,2
330,508,497,242,287,9600,10248,10268,30.22,-721,-110,-87,2
330,508,497,243,287,9736,9944,10108,30.22,-772,-94,-36,2
330,508,497,243,287,9608,10264,10256,30.32,-614,-81,-68,2
330,508,497,243,287,9704,9944,10208,30.27,-703,-268,2,2
330,508,497,243,287,9616,9932,10024,30.18,-715,-345,-17,2
331,508,496,243,287,9540,10080,10400,30.27,-697,-467,-5,2
330,508,497,243,287,9612,10184,10376,30.27,-691,-414,-11,2
331,508,496,243,287,9724,10108,9900,30.22,-498,-64,-100,2
330,508,496,243,287,9576,10008,9984,30.27,-729,-28,-88,2
331,508,497,243,287,9608,10080,10192,30.27,-703,-16,-66,2
362,500,371,254,288,11488,9472,9056,29.57,-605,-401,162,2
362,499,371,254,288,11248,9484,9096,29.57,-658,-15,-123,2
361,500,371,255,288,11456,9576,9124,29.52,-610,-225,11,2
362,500,371,255,288,11480,9580,8708,29.57,-641,-243,66,2
362,500,371,254,288,11452,9640,9012,29.57,-829,-59,-57,2
362,500,371,255,288,11408,9536,9056,29.61,-738,-151,12,2
362,500,371,255,288,11420,9492,8860,29.61,-722,-217,-35,2
362,500,372,255,288,11296,9280,8708,29.47,-708,2,-29,2
362,501,371,255,288,11368,9540,8940,29.52,-675,-408,48,2
362,500,371,256,289,11488,9300,8900,29.66,-605,-3,-27,2
362,500,372,255,288,11280,9548,9060,29.61,-651,-140,-10,2
362,500,372,255,289,11488,9520,8492,29.57,-617,-102,-164,2
362,500,372,255,288,10844,9788,9216,29.57,-775,-587,243,2
362,500,372,255,289,11680,9572,8488,29.52,-678,-205,-216,2
362,501,372,256,288,11616,9588,8720,29.47,-672,-313,194,2
363,500,372,255,289,11636,9408,8412,29.52,-760,-127,-124,2
363,500,372,255,289,11380,9504,8712,29.57,-743,-266,-67,2
363,500,372,256,289,11800,9384,8692,29.61,-724,-175,25,2
363,500,372,256,289,11692,9128,8644,29.61,-666,-315,81,2
363,501,372,256,289,11840,9256,8548,29.61,-767,-86,138,2
363,500,372,256,289,11576,9204,8808,29.47,-809,-5,-116,2
363,501,372,256,288,11536,9140,8828,29.57,-587,-126,123,2
363,501,372,256,289,11708,9560,8800,29.57,-685,-287,17,2
363,500,372,256,289,11808,9408,8732,29.66,-732,-142,-14,2
363,500,372,256,289,11604,9372,8676,29.52,-668,-161,-14,2
363,500,372,256,289,11808,9348,8628,29.52,-701,-156,-12,2
363,500,372,256,289,11500,9480,8796,29.57,-684,5,20,2
363,500,372,256,289,11744,9248,8712,29.57,-658,-339,-100,2
363,500,372,256,289,11812,9236,8524,29.61,-602,-299,-3,2
364,500,372,256,289,11860,9360,8612,29.61,-643,-171,-30,2
364,500,372,256,289,11960,9148,8400,29.66,-837,20,-122,2
364,500,372,256,289,11732,9288,8868,29.57,-548,-367,-726,2
376,506,506,249,301,10524,5732,12872,29.66,-1624,-676,769,2
374,507,506,251,300,11016,5768,11972,29.61,-606,-247,-258,2
374,507,506,251,300,11048,6380,12132,29.61,-686,-219,-58,2
375,507,506,252,300,11144,6160,12124,29.61,-669,-216,146,2
374,507,505,252,301,11304,6012,12004,29.66,-871,-156,15,2
374,507,505,253,301,11280,6088,11960,29.61,-601,-97,160,2
374,507,505,253,301,11448,6280,11668,29.66,-771,-262,-57,2
375,507,505,253,301,11216,6292,12044,29.61,-709,-138,1,2
375,507,505,253,301,11484,6236,11712,29.57,-504,-403,66,2
375,507,504,253,301,11476,6172,11828,29.52,-727,-157,31,2
375,507,504,253,301,11508,6320,11740,29.52,-567,-266,6,2
375,507,504,254,301,11508,6232,11808,29.71,-695,-219,-44,2
374,507,504,254,301,11472,6220,11764,29.61,-795,-111,-49,2
374,507,503,254,301,11408,6240,11860,29.61,-555,-128,35,2
374,507,503,254,301,11440,6272,11788,29.75,-680,-110,-40,2
373,507,503,254,301,11360,6012,11976,29.61,-621,-181,-63,2
374,507,503,254,301,11692,5904,11604,29.66,-485,-607,-69,2
374,507,503,254,301,11636,6252,11672,29.57,-720,-362,-42,2
374,507,503,254,301,11624,6200,11504,29.61,-702,-127,-60,2
374,507,503,255,301,11512,6092,11656,29.52,-629,-473,-80,2
373,507,502,255,301,11692,6240,11372,29.61,-564,-348,35,2
373,507,502,255,301,11680,6232,11564,29.61,-769,-60,-48,2
373,507,502,255,301,10692,6420,12232,29.66,-507,0,122,2
374,507,502,255,301,11256,6232,11948,29.57,-522,-361,-25,2
374,506,502,255,301,11048,6172,12348,29.57,-763,-344,-110,2
375,507,502,256,301,11352,5920,12068,29.61,-822,-286,-54,2
375,507,502,255,301,11284,6096,11860,29.61,-675,3,-37,2
375,507,502,256,301,11376,6064,11700,29.61,-603,-106,90,2
375,507,502,256,301,11276,6112,12260,29.52,-654,-411,-34,2
375,507,502,256,301,11312,5872,11952,29.66,-720,-221,-20,2
375,507,501,256,301,11460,5952,11964,29.61,-715,213,-50,2
375,506,501,256,301,11508,5976,11796,29.66,-727,-140,225,2
375,504,501,256,301,11432,5892,11836,29.66,-628,-282,-133,2
375,504,500,256,301,11480,6244,11488,29.66,-573,172,219,2
375,504,500,256,302,11568,5764,11872,29.61,-655,-144,61,2
375,504,500,256,302,10516,6032,12624,29.61,-663,-193,135,2
376,504,500,256,302,11140,6384,11848,29.61,-739,-355,-123,2
376,504,500,257,302,11040,6268,12160,29.66,-691,-275,-200,2
376,504,500,257,302,10852,5944,12268,29.66,-923,-192,-207,2
376,505,500,257,303,11380,5436,12416,29.71,-754,-349,84,2
376,505,500,258,303,11000,5296,12620,29.61,-606,-175,25,2
376,504,500,258,303,10708,5376,12808,29.71,-762,-308,-124,2
376,505,500,258,303,10844,5400,12892,29.61,-736,-453,5,2
376,505,500,258,303,11020,5740,12456,29.61,-758,148,-189,2
376,505,500,258,303,10860,5676,12688,29.66,-556,-417,-185,2
376,505,500,258,303,10960,5440,12572,29.66,-666,-292,-124,2
376,505,500,258,303,11076,5644,12260,29.61,-602,200,148,2
376,505,500,258,303,10556,5584,12708,29.61,-626,155,170,2
376,505,499,258,303,9420,8160,13280,29.66,-2044,179,-712,2
376,505,499,258,304,10232,5788,13200,29.71,-900,-434,309,2
376,505,499,258,304,11364,5468,12116,29.61,-438,-425,263,2
376,506,499,259,304,10892,5628,12312,29.66,-925,-88,-271,2
376,505,499,259,304,11228,5376,12484,29.71,-657,-290,-140,2
376,505,499,259,304,11004,5440,12888,29.71,-668,-270,91,2
377,505,499,259,304,11060,5220,12512,29.66,-590,-177,-108,2
376,505,499,259,304,11100,5268,12808,29.71,-774,-138,-264,2
377,505,499,259,304,11016,5056,12420,29.75,-425,-481,105,2
377,505,499,259,304,11120,5684,12332,29.66,-608,-306,-142,2
377,505,499,259,304,11080,5768,12544,29.75,-813,73,-76,2
377,505,500,259,304,11196,5640,12476,29.66,-743,-254,-23,2
376,505,499,259,304,11076,5616,12452,29.75,-663,-508,34,2
376,506,499,259,304,11352,5676,12276,29.71,-761,-282,2,2
376,506,499,259,304,11360,5504,12416,29.71,-654,-308,43,2
376,506,499,259,304,11516,5704,12024,29.66,-769,-327,-54,2
376,506,499,259,304,10992,5464,12600,29.71,-733,79,-67,2
376,505,499,260,304,10688,5716,12640,29.66,-619,-334,-185,2
376,505,499,260,304,10928,5648,12340,29.66,-245,-830,339,2
376,505,499,260,305,10960,5912,12404,29.75,-7,184,40,2
370,326,388,274,282,15340,104,7588,28.58,995,-951,389,2
370,331,390,273,284,16356,1724,6248,28.62,791,1746,1378,2
402,337,392,279,288,15628,1952,7764,28.62,6834,-1182,402,2
385,336,392,274,283,16556,2760,4860,28.62,-1110,772,-78,2
385,336,392,275,285,16652,2164,5600,28.67,-725,-460,-20,2
386,337,391,276,285,16204,1080,6468,28.62,-1059,-431,999,2
383,338,392,276,284,16320,292,6380,28.72,-619,-279,-13,2
384,338,392,277,285,16504,-452,5808,28.62,-701,-860,-213,2
384,338,392,277,285,16676,-180,5756,28.67,-884,328,70,2
384,338,391,274,279,16576,-172,6052,28.67,-545,-184,75,2
381,337,390,273,277,16644,-84,5740,28.53,-882,-225,205,2
379,337,389,271,274,16604,-328,5760,28.62,-556,-331,-61,2
379,337,388,272,275,16552,-452,5756,28.67,-608,-230,21,2
380,338,389,272,276,16680,-224,5660,28.62,-634,-314,-27,2
381,338,389,273,277,16348,-1080,6212,28.67,-1017,151,-233,2
381,337,389,274,278,16688,-20,5264,28.62,-811,-134,-313,2
381,337,389,274,279,16436,160,6508,28.53,-514,-542,-566,2
381,338,389,274,280,16308,-84,5040,28.67,-296,286,-134,2
381,338,389,275,280,16712,268,5312,28.62,-164,-584,-174,2
380,337,389,275,281,16772,64,4924,28.67,-521,-422,-65,2
381,338,389,275,281,16784,-252,5468,28.62,-518,-245,-28,2
382,338,390,275,281,16680,160,5084,28.62,-718,-118,1,2
383,338,390,276,282,16704,36,5212,28.58,-572,-72,83,2
382,339,390,276,282,16708,224,4964,28.53,-882,-433,-37,2
379,337,387,269,277,16752,312,5132,28.53,-289,57,-196,2
380,338,387,271,278,16852,120,4824,28.53,-671,-176,83,2
381,339,388,271,278,16768,92,4908,28.39,-611,-137,14,2
378,339,388,271,278,16808,540,4664,28.48,-519,-248,-34,2
378,339,388,271,278,16772,44,4960,28.62,-588,-257,-129,2
378,339,388,271,279,16788,172,4936,28.48,-672,-230,-185,2
379,339,388,271,279,16848,-24,4912,28.48,-673,-249,48,2
380,339,388,272,279,16848,64,4888,28.53,-651,-323,54,2
381,340,388,272,279,16936,296,4808,28.58,-627,-219,-84,2
381,340,388,272,280,16840,108,4836,28.62,-711,-262,-181,2
381,340,388,272,280,16844,268,4768,28.58,-627,-137,130,2
381,340,388,272,280,16848,60,4996,28.53,-642,-310,-82,2
379,340,389,273,280,16864,-20,4800,28.48,-737,-22,34,2
381,340,388,273,280,16912,92,5128,28.58,-641,-239,-67,2
382,340,389,273,281,16860,112,5136,28.53,-656,-130,-39,2
382,340,389,273,281,16796,112,4832,28.53,-564,-160,-93,2
382,340,389,273,281,16820,28,4872,28.58,-615,-26,83,2
382,340,389,273,281,16656,36,4840,28.53,-736,-284,-78,2
382,340,389,273,281,16796,156,4920,28.58,-613,-133,129,2
382,340,389,273,281,15564,328,5124,28.58,-244,-132,156,2
382,340,389,274,282,16824,432,5040,28.53,-588,-182,60,2
382,340,389,274,282,16792,264,5116,28.48,-614,-88,36,2
382,340,389,274,282,16740,492,5032,28.53,-650,-290,92,2
382,340,389,274,282,16888,216,4956,28.58,-652,-237,8,2
382,340,389,274,282,16772,300,4896,28.53,-621,-257,15,2
382,340,389,274,282,16764,264,4868,28.62,-629,-278,64,2
383,341,389,274,282,16952,292,4704,28.53,-693,-208,-9,2
383,341,389,274,282,16760,296,4792,28.48,-681,-291,-39,2
383,341,389,274,282,16796,120,4860,28.48,-632,-219,91,2
383,341,390,275,283,16880,288,4480,28.58,-653,-173,-91,2
383,341,390,275,283,16852,284,4512,28.58,-610,-269,-150,2
383,341,390,275,283,16784,164,5016,28.58,-708,-319,-78,2
382,341,390,274,283,16608,244,5108,28.58,-674,-25,76,2
382,341,390,275,284,16760,400,4724,28.58,-544,-360,46,2
383,341,390,274,285,16796,140,4684,28.53,-423,-211,1,2
383,341,390,275,284,16728,132,5160,28.53,-770,-334,-139,2
383,341,390,275,284,16792,-68,5296,28.58,-630,-350,-58,2
380,341,390,274,283,16824,212,4840,28.58,-883,-234,-319,2
381,341,388,272,281,16968,480,4564,28.48,-655,-260,-120,2
381,341,388,272,282,16772,180,4920,28.44,-768,4,101,2
380,341,388,270,279,16880,172,4600,28.48,-689,-239,-2,2
380,341,387,269,278,16740,376,4736,28.48,-684,-62,137,2
380,340,384,267,278,16880,-20,5036,28.48,-581,-225,-117,2
380,340,384,268,277,16812,128,5016,28.53,-720,-247,-96,2
381,340,384,269,278,16784,216,4624,28.58,-553,-148,-138,2
381,340,384,269,279,16692,452,5052,28.58,-739,-136,31,2
381,340,385,270,279,16864,296,4836,28.53,-581,-198,38,2
381,340,384,270,279,16840,20,4888,28.53,-672,65,0,2
381,340,384,269,277,16752,440,4708,28.53,-624,-361,68,2
381,341,384,269,278,16904,688,4756,28.67,-659,-404,-242,2
381,340,385,270,278,16936,680,4704,28.53,-705,-22,45,2
382,340,385,270,279,16960,600,4536,28.62,-589,-226,-146,2
382,340,385,270,279,16808,516,4864,28.53,-671,-235,14,2
382,340,385,270,279,16824,356,4844,28.44,-660,-101,157,2
382,340,385,270,279,16836,588,4796,28.58,-585,-85,119,2
381,340,385,271,279,16876,268,4884,28.53,-583,-337,-13,2
381,341,385,271,279,16760,236,4780,28.58,-604,-59,-67,2
382,341,386,271,280,16772,364,5004,28.53,-661,-116,132,2
381,341,385,271,280,16692,376,4704,28.53,-653,-150,-74,2
382,341,385,271,280,16960,244,4956,28.53,-308,598,270,2
382,341,385,271,280,16684,96,5020,28.48,-676,-56,102,2
383,341,386,271,280,16576,532,6016,28.62,-446,-83,695,2
368,348,389,273,283,16768,-644,5352,28.58,-678,-121,-85,2
375,347,389,274,285,16916,-288,5276,28.58,-637,-40,-174,2
378,346,389,274,285,16756,-448,5116,28.53,-568,-439,-90,2
379,346,389,274,285,16740,-304,5576,28.48,-648,-198,37,2
380,347,389,274,285,16632,-304,5424,28.58,-702,-190,-6,2
379,347,389,274,285,16556,-292,5644,28.53,-652,-239,47,2
379,346,389,274,285,16612,-76,5176,28.58,-560,-236,10,2
380,347,389,274,285,16780,-308,5536,28.53,-694,-194,12,2
380,346,390,275,285,16548,-392,5448,28.58,-619,-63,40,2
380,347,389,274,285,16768,132,5648,28.53,-770,-88,28,2
381,347,389,275,285,16600,-180,5456,28.48,-735,-298,75,2
381,347,389,274,284,16712,-28,5200,28.58,-505,67,-503,2
382,347,389,275,285,16440,-180,5748,28.48,-474,276,160,2
381,344,387,273,284,16484,1228,5704,28.58,-1120,-889,-298,2
372,416,448,378,388,-5204,-864,16080,27.97,-657,-147,13,2
373,416,458,378,388,-5156,-840,16068,27.97,-631,-264,-11,2
373,416,461,378,388,-5348,-812,16180,27.97,-671,-207,-31,2
372,416,462,377,388,-5264,-812,16272,27.92,-684,-246,1,2
373,416,461,378,388,-5280,-848,16180,28.01,-685,-205,-19,2
373,415,462,377,388,-5284,-900,16256,28.06,-621,-144,-15,2
373,416,461,377,388,-5284,-732,16128,27.97,-650,-80,-20,2
373,415,462,377,388,-5216,-708,16032,27.97,-641,-200,-21,2
373,416,461,377,388,-5192,-756,16176,28.06,-657,-198,4,2
373,415,461,377,388,-5260,-768,16200,28.01,-672,-220,-37,2
362,483,504,286,312,15536,-12,8604,29.28,-613,-122,-103,3
362,516,504,286,312,15544,-72,8632,29.28,-613,-257,-10,3
362,516,504,286,312,15484,8,8736,29.19,-635,-202,-9,3
362,516,504,287,312,15540,-152,8680,29.28,-709,-184,-13,3
362,516,504,287,312,15344,-68,8740,29.28,-669,-260,-25,3
362,516,504,286,312,15468,-48,8616,29.28,-625,-177,-12,3
362,516,504,287,312,15372,-164,8620,29.42,-670,-171,77,3
362,516,504,287,312,15416,-192,8624,29.28,-654,-230,-24,3
362,516,504,286,312,15440,-92,8640,29.24,-642,-276,-83,3
362,516,504,287,312,15364,-8,8676,29.38,-641,-207,-82,3
363,516,503,287,312,15488,-136,8636,29.52,-693,-143,-51,3
362,516,504,287,312,15380,-108,8652,29.47,-660,-203,34,3
362,516,504,287,312,15320,60,8516,29.47,-708,-235,-101,3
362,516,504,287,312,15344,-56,8756,29.42,-696,-242,-13,3
362,516,504,286,312,15348,-140,8564,29.42,-663,-252,1,3
363,516,504,287,312,15288,-40,8632,29.38,-626,-123,26,3
362,515,504,287,312,15536,-208,8464,29.38,-602,-166,-47,3
363,516,504,287,312,15460,-148,8808,29.38,-737,-247,-57,3
363,516,504,287,312,15504,72,8552,29.33,-641,-157,-84,3
362,516,504,287,312,15440,-52,8740,29.42,-660,-321,-4,3
363,515,504,287,312,15404,-100,8628,29.33,-697,-247,-25,3
363,515,504,287,313,15320,-4,8740,29.42,-731,-204,-57,3
363,515,503,287,313,15424,-100,8676,29.42,-683,-241,-38,3
363,515,504,287,312,15424,-44,8628,29.28,-599,-126,15,3
363,515,503,287,313,15384,-48,8744,29.42,-660,-296,-15,3
363,515,503,287,313,15304,80,8688,29.38,-623,-135,-91,3
362,515,503,287,312,15348,-20,8688,29.42,-754,-293,-23,3
363,515,503,287,313,15328,-180,8680,29.42,-728,-170,-58,3
375,515,503,287,312,15360,748,7972,29.47,929,-71,1289,3
420,497,508,301,305,15320,988,9060,29.52,719,-30,-258,3
430,497,508,302,306,14092,560,10420,29.47,-780,-316,119,3
431,505,509,302,307,15256,824,8396,29.42,-1348,-533,-311,3
431,506,509,302,307,15276,156,8608,29.47,-901,-486,105,3
432,506,509,302,308,15444,-64,8420,29.47,-499,-71,111,3
432,507,509,303,308,15432,-112,8620,29.47,-615,-211,37,3
432,506,509,302,308,15560,-312,7960,29.42,-100,101,-493,3
432,504,509,303,308,15344,-288,8524,29.52,-708,-166,0,3
432,501,509,303,308,15280,-344,8864,29.42,-558,-92,86,3
432,502,509,303,309,15416,-236,8596,29.38,-613,-143,7,3
432,502,509,303,309,15380,-408,8700,29.42,-635,-286,-5,3
432,502,509,303,309,15384,-224,8500,29.47,-673,-32,-3,3
432,502,509,304,309,15456,-140,8560,29.38,-675,-198,25,3
432,502,509,304,309,15476,-296,8620,29.52,-710,-106,-16,3
432,501,509,304,309,15056,-616,9108,29.47,-937,-494,-48,3
432,501,509,304,309,15232,-360,8896,29.47,-754,-26,117,3
431,491,509,304,309,14732,16,9904,29.42,-174,-16,269,3
431,502,509,304,309,15132,-308,8872,29.42,-875,137,-717,3
431,503,509,304,309,15244,-144,8956,29.47,-561,-351,-135,3
431,504,509,303,309,15276,-224,8788,29.47,-766,-383,-52,3
430,503,509,304,309,15120,224,9424,29.47,-706,-1,158,3
430,504,509,303,310,15148,-212,9320,29.42,-602,-63,75,3
429,504,509,304,309,15168,-376,9020,29.47,-655,-502,-370,3
429,503,509,304,309,15080,560,8944,29.42,-995,227,-294,3
429,502,509,304,310,14352,612,10380,29.52,-488,-436,-28,3
428,504,509,304,310,15504,456,8420,29.47,-860,1,434,3
428,506,509,304,310,15280,756,9056,29.47,-195,518,207,3
428,505,508,304,309,15372,504,8656,29.47,-762,-107,-110,3
428,506,508,304,309,15360,-20,8728,29.57,-760,-258,113,3
428,505,508,304,310,15192,232,8856,29.52,-834,-61,266,3
428,506,508,304,310,15300,-160,8764,29.61,-643,-160,-82,3
428,506,508,304,310,15192,-348,8956,29.52,-830,-309,138,3
428,506,508,304,309,15180,-408,8824,29.57,-768,-68,-17,3
428,506,508,304,310,15232,-476,9076,29.52,-579,-174,-92,3
429,506,508,304,310,15332,-292,8788,29.47,-651,-288,-92,3
428,506,509,304,310,15332,-180,8944,29.57,-609,-26,8,3
428,506,508,304,310,15288,-432,8828,29.57,-839,-49,32,3
429,506,508,304,310,15292,-412,8948,29.52,-723,-287,-48,3
428,506,508,304,310,15384,-416,8684,29.47,-685,-257,20,3
429,506,508,304,310,15320,-488,8860,29.57,-704,-157,-21,3
429,506,508,304,310,15268,-284,8716,29.61,-665,-197,-2,3
429,506,509,304,310,15256,-504,8864,29.61,-672,-292,6,3
429,506,508,304,310,15336,-480,8832,29.47,-621,-85,14,3
429,506,508,304,310,15292,-308,9004,29.52,-645,-98,-5,3
429,506,508,305,310,15112,-432,8976,29.61,-737,-275,-75,3
429,506,508,304,310,15252,-400,8820,29.52,-716,-143,8,3
429,506,508,304,310,15348,-420,8840,29.57,-705,-272,23,3
429,505,508,305,310,15164,-460,9028,29.61,-669,-288,-49,3
429,506,508,304,310,15292,-284,8756,29.52,-686,-180,-85,3
429,505,508,304,310,15204,-508,8748,29.52,-650,-277,-48,3
429,505,508,304,310,15208,-496,8996,29.61,-642,-200,-23,3
429,505,508,304,310,15152,-468,9080,29.47,-700,-180,29,3
429,505,509,304,311,15168,-584,8884,29.57,-764,-279,-18,3
428,504,508,304,311,15560,-280,8160,29.57,-514,192,-50,3
429,505,508,305,310,15224,-652,8664,29.57,-654,-38,-116,3
429,505,508,305,310,15128,-260,9328,29.61,-862,-408,50,3
429,505,508,305,310,15212,-628,9264,29.57,-995,-474,231,3
429,505,508,305,310,15008,-800,9232,29.61,-855,-163,60,3
429,505,508,305,310,15208,-864,8900,29.61,-746,-268,-27,3
429,505,508,305,311,15252,-700,9036,29.61,-810,-449,45,3
429,505,508,305,311,15040,-876,9016,29.61,-867,-60,-40,3
429,505,508,304,311,15120,-708,9016,29.52,-654,-196,23,3
429,505,508,305,311,15112,-716,9064,29.61,-795,-258,-71,3
429,505,508,305,311,15024,-932,9188,29.66,-710,-187,106,3
429,506,508,305,311,15184,-848,9300,29.75,-639,-408,-33,3
429,505,508,305,311,15184,-736,8968,29.61,-694,-200,-56,3
429,505,508,305,311,15140,-864,9176,29.66,-622,-284,-16,3
429,505,508,305,311,15136,-824,9132,29.66,-583,-253,24,3
429,505,508,305,311,15120,-1036,9004,29.66,-661,-173,27,3
429,505,508,305,311,15324,-992,9084,29.61,-700,-288,-28,3
429,506,508,305,311,15164,-888,9036,29.71,-627,-202,19,3
339,498,477,274,316,13424,8488,7352,28.29,-696,-353,109,3
338,498,479,274,316,13276,8428,7308,28.15,-733,-208,-205,3
338,498,478,274,316,13492,8512,7244,28.25,-441,-402,27,3
338,498,483,274,317,12832,7884,6848,28.15,-623,75,278,3
338,497,491,274,315,12080,12008,6868,28.25,-798,2127,-387,3
331,487,490,269,314,10132,12320,5844,28.25,-1369,-2135,87,3
328,488,492,270,315,11184,11736,5240,28.25,-2970,-2642,-1508,3
327,471,490,271,315,10568,11728,5936,28.29,-715,426,-13,3
329,470,488,271,316,10572,11892,6096,28.34,-933,34,-235,3
329,480,489,271,316,10820,11400,6068,28.25,-730,-314,-448,3
330,479,469,272,317,10968,11860,5084,28.29,-860,-45,206,3
330,490,477,271,317,10448,12060,6060,28.29,-645,-151,241,3
330,481,481,271,317,10480,12168,5852,28.25,-828,-783,27,3
330,463,455,272,318,10812,11984,5652,28.29,-418,-41,75,3
330,487,487,272,318,11220,12040,5572,28.2,-549,-218,73,3
331,479,490,272,318,10800,11876,5640,28.25,-754,-631,154,3
331,489,488,271,319,10804,12224,5432,28.25,-596,195,-303,3
328,455,487,271,319,11252,11832,5680,28.29,-676,-537,32,3
327,443,482,271,319,11144,11508,5796,28.2,-780,260,-18,3
325,496,461,427,270,13268,12812,5036,28.25,-15482,994,-368,3
308,498,481,445,412,11676,8944,5820,28.25,-1581,-149,-302,3
313,495,437,276,250,11740,9656,5708,28.29,1835,-4382,774,3
307,504,491,436,261,13000,10644,4508,28.39,-942,-335,-52,3
299,501,491,440,262,14300,8824,-3604,28.34,11773,-6166,2828,3
422,503,449,234,288,12832,11164,2084,28.34,438,2025,430,3
409,503,477,264,291,10444,12028,944,28.29,137,-854,93,3
430,505,485,269,294,12028,16608,1396,28.25,-3681,-3147,-2274,3
445,446,491,281,310,10044,13412,4008,28.29,-1211,-531,-290,3
445,468,491,283,310,9216,13616,4868,28.34,238,-604,837,3
449,506,474,282,310,9956,13128,3996,28.34,-919,-399,-1066,3
450,481,481,283,310,9968,13488,3572,28.34,-709,164,119,3
446,481,469,282,310,8736,13448,3680,28.39,-1555,-713,34,3
447,504,489,282,309,9292,13484,4400,28.34,-785,30,-313,3
447,507,485,283,309,9264,13244,4608,28.39,-1333,-559,-214,3
448,507,491,284,310,9792,11912,4972,28.34,-2258,-685,65,3
449,484,491,285,311,11812,12528,4420,28.2,-1277,1042,-417,3
449,480,491,286,311,12108,10720,3180,28.29,-1157,-1078,-347,3
449,483,491,286,311,11964,11276,4132,28.2,-711,-145,-133,3
448,482,492,286,311,12040,11520,4424,28.39,-579,-226,84,3
448,466,492,286,311,11960,11312,4044,28.25,-1139,-105,-448,3
449,477,492,286,312,11548,11736,4468,28.29,-617,-185,35,3
451,474,486,287,313,11696,13216,2788,28.29,-1244,475,-2232,3
451,469,491,288,314,10908,11968,3688,28.29,-889,47,-331,3
451,484,491,289,314,10840,12424,4044,28.29,-785,-430,76,3
451,496,491,289,314,11020,12500,3708,28.34,-771,-212,218,3
450,498,492,289,314,10580,12400,3996,28.25,-586,-67,38,3
450,498,492,289,314,10856,12600,3796,28.25,-658,-219,-53,3
450,497,492,289,314,10780,12404,3844,28.2,-550,-327,371,3
450,507,492,290,314,10800,12508,3956,28.25,-296,311,105,3
449,507,492,290,315,11104,12676,3776,28.29,-584,-200,-18,3
450,477,474,290,314,7300,14140,4704,28.2,-2362,-344,-1372,3
448,493,486,289,314,11352,14008,1312,28.25,-334,-1054,779,3
448,497,485,289,313,10028,13460,1248,28.15,-911,157,-33,3
449,501,484,289,314,9600,13508,604,28.2,-618,-394,-479,3
449,480,480,290,314,10220,13360,1528,28.25,-1091,178,-1066,3
449,492,484,290,314,9756,13464,1508,28.29,-628,-178,148,3
449,507,487,290,314,10056,13616,1240,28.15,-426,-100,-88,3
449,506,490,291,313,9976,13416,1068,28.29,-676,-251,-57,3
449,507,492,291,314,9956,13336,1032,28.25,-585,-24,-127,3
449,507,492,291,307,10020,13456,1032,28.2,-569,-271,70,3
448,506,492,291,314,9556,13084,1700,28.2,-1046,-88,236,3
449,489,490,291,312,10668,12816,1200,28.15,-1293,231,517,3
449,483,490,291,313,10628,13568,1524,28.2,-277,-373,213,3
449,469,489,291,315,10280,13028,1588,28.2,-723,-285,-388,3
449,461,490,291,316,10340,13144,1476,28.2,-650,-218,-192,3
449,501,489,291,315,10160,12924,1240,28.2,-548,-334,277,3
449,499,489,291,316,10556,13284,1316,28.15,-623,-159,80,3
449,489,489,291,316,10432,13252,1788,28.29,-795,-262,66,3
449,489,489,292,315,10464,13400,1500,28.2,-678,-136,136,3
449,501,490,291,314,9924,12948,1572,28.2,-809,39,133,3
448,465,490,291,314,10280,13316,1632,28.2,-648,-133,-71,3
448,470,489,292,314,10340,13060,1712,28.15,-563,-120,-125,3
449,500,489,292,308,10276,13108,1340,28.2,-469,-465,-53,3
448,506,489,292,309,10272,13064,1444,28.15,-848,-414,-171,3
448,506,489,292,309,10376,13192,1632,28.2,-518,-70,17,3
448,499,489,292,308,11036,13716,1280,28.15,-623,172,253,3
448,504,489,292,309,10328,13352,1300,28.29,-772,-132,79,3
448,505,489,292,309,10348,13028,1688,28.2,-752,-425,173,3
448,505,489,292,308,10340,13164,1576,28.15,-649,-109,49,3
448,506,489,292,307,10704,13580,1308,28.15,-676,-147,-96,3
448,506,489,292,306,10460,13188,1320,28.15,-678,-200,-94,3
448,506,489,292,306,10336,13108,1320,28.01,-617,-172,-60,3
446,506,489,293,307,10404,13108,1372,28.25,-649,-274,168,3
447,507,489,293,305,10360,13212,1388,28.15,-604,-297,-46,3
447,507,489,293,304,10188,13088,1356,28.11,-824,-235,79,3
447,507,489,293,304,10240,13100,1412,28.15,-838,-402,3,3
447,507,489,293,301,10112,13368,1388,28.11,-748,-104,-33,3
448,507,489,293,299,10160,13268,1424,28.15,-806,-229,-44,3
447,507,489,293,304,10208,13168,1616,28.06,-708,-246,82,3
447,507,488,293,307,10228,13172,1496,28.2,-592,-89,27,3
447,507,488,293,307,10296,13276,1332,28.15,-644,-281,-114,3
447,507,489,293,306,10148,13328,1372,28.15,-681,-156,-3,3
447,507,490,293,308,10088,13244,1284,28.11,-613,-190,-106,3
447,507,491,293,305,9944,12848,1384,28.15,-642,-458,477,3
447,505,489,293,306,10592,13128,1832,28.01,-631,142,389,3
448,508,490,293,307,11004,13488,612,28.11,-881,-460,-953,3
448,508,491,293,305,10456,12628,1568,28.2,-717,-389,363,3
448,508,491,294,307,10564,12868,1732,28.15,-825,483,-98,3
447,507,491,294,307,11052,12748,900,28.15,-652,-135,-94,3
448,508,491,294,307,10792,13340,1540,28.2,-456,-37,-24,3
355,445,462,305,314,13976,404,11096,29.05,-727,-311,119,3
355,445,462,305,313,14084,452,10576,29.05,-612,-231,-27,3
355,447,462,305,313,13960,364,11032,29.14,-691,-162,-105,3
355,446,462,305,313,13868,416,10968,29.19,-597,-253,-101,3
355,446,462,305,313,13932,988,10692,29.14,-519,-224,-57,3
354,446,462,306,313,14148,528,10676,29.19,-656,-331,-99,3
355,446,462,305,313,14024,440,10700,29.14,-550,-177,12,3
355,447,462,305,313,13984,680,10784,29.09,-670,-185,-66,3
355,448,462,305,313,13904,384,10780,29.14,-663,-148,-51,3
355,447,462,305,314,13960,352,10644,29.19,-705,-167,-44,3
356,447,462,305,314,13796,336,11060,29.14,-705,-149,-84,3
355,448,462,305,314,13856,364,10992,29.19,-708,-227,-28,3
355,447,462,305,314,13800,324,11160,29.24,-767,-193,30,3
355,446,462,305,314,14016,372,10824,29.19,-706,-272,71,3
355,446,462,306,314,13928,416,11024,29.24,-732,-46,-99,3
355,446,462,306,314,13972,256,10908,29.09,-711,-202,82,3
356,446,462,305,314,13880,440,10992,29.14,-840,-299,-48,3
355,445,462,305,314,13748,-140,11220,29.28,-700,-368,-150,3
355,444,461,305,314,13876,696,10724,29.24,-530,-256,-33,3
355,445,462,305,314,13964,488,10900,29.19,-679,-284,8,3
355,445,461,306,314,13948,496,10724,29.19,-659,-196,-14,3
